# n + Ag  0 : (n,n'01)
# jendl4.0   N.Iwamoto,K.Shibata               EVAL-Dec09
# uncertainties: n
# # energies =    90
#   E(MeV)          xs(mb) 
 8.88494E-02    0.00000E+00
 9.00000E-02    9.09626E-02
 1.00000E-01    1.63449E+00
 1.10000E-01    4.00275E+00
 1.20000E-01    6.50161E+00
 1.30000E-01    9.03438E+00
 1.33969E-01    1.00581E+01
 1.40000E-01    1.15733E+01
 1.50000E-01    1.41169E+01
 1.60000E-01    1.67673E+01
 1.70000E-01    1.95387E+01
 1.80000E-01    2.24146E+01
 1.90000E-01    2.54112E+01
 2.00000E-01    2.85274E+01
 2.25000E-01    3.68717E+01
 2.50000E-01    4.57699E+01
 2.75000E-01    5.53831E+01
 3.00000E-01    6.54574E+01
 3.14264E-01    7.14316E+01
 4.00000E-01    9.55214E+01
 4.19056E-01    1.01437E+02
 4.23890E-01    1.01954E+02
 5.00000E-01    1.11038E+02
 6.00000E-01    1.29007E+02
 7.00000E-01    1.48407E+02
 7.08411E-01    1.50005E+02
 7.12539E-01    1.50398E+02
 7.13548E-01    1.50510E+02
 7.31059E-01    1.52126E+02
 7.42100E-01    1.53005E+02
 7.80664E-01    1.55055E+02
 7.96308E-01    1.55683E+02
 8.00000E-01    1.55342E+02
 8.70751E-01    1.57347E+02
 8.77523E-01    1.57425E+02
 8.78058E-01    1.57411E+02
 8.98243E-01    1.57233E+02
 9.00000E-01    1.57199E+02
 9.19438E-01    1.57239E+02
 9.20548E-01    1.57210E+02
 9.39421E-01    1.56629E+02
 1.00000E+00    1.51115E+02
 1.10000E+00    1.42964E+02
 1.20000E+00    1.34467E+02
 1.30000E+00    1.24894E+02
 1.40000E+00    1.15506E+02
 1.50000E+00    1.08708E+02
 1.60000E+00    1.01085E+02
 1.70000E+00    9.31960E+01
 1.80000E+00    8.60604E+01
 1.90000E+00    7.95597E+01
 2.00000E+00    7.33501E+01
 2.25000E+00    5.59574E+01
 2.50000E+00    4.35489E+01
 2.75000E+00    3.26571E+01
 3.00000E+00    2.37663E+01
 3.50000E+00    1.25208E+01
 4.00000E+00    6.46256E+00
 4.50000E+00    3.29166E+00
 5.00000E+00    1.66192E+00
 5.50000E+00    8.36836E-01
 6.00000E+00    4.25170E-01
 6.50000E+00    2.23450E-01
 7.00000E+00    1.25631E-01
 7.50000E+00    7.79244E-02
 8.00000E+00    5.40502E-02
 8.50000E+00    4.15721E-02
 9.00000E+00    3.46589E-02
 9.50000E+00    3.05403E-02
 1.00000E+01    2.78568E-02
 1.05000E+01    2.59305E-02
 1.10000E+01    2.44223E-02
 1.15000E+01    2.31336E-02
 1.20000E+01    2.19469E-02
 1.25000E+01    2.08615E-02
 1.30000E+01    1.98944E-02
 1.35000E+01    1.90066E-02
 1.40000E+01    1.81939E-02
 1.45000E+01    1.74170E-02
 1.50000E+01    1.67038E-02
 1.55000E+01    1.59880E-02
 1.60000E+01    1.53318E-02
 1.65000E+01    1.46640E-02
 1.70000E+01    1.40470E-02
 1.75000E+01    1.34235E-02
 1.80000E+01    1.28579E-02
 1.85000E+01    1.23015E-02
 1.90000E+01    1.17876E-02
 1.95000E+01    1.12911E-02
 2.00000E+01    1.08356E-02
