# n + Ag  0 : (n,xn)
# jendl4.0   N.Iwamoto,K.Shibata               EVAL-Dec09
#
# # energies =    91
#   E(MeV)          xs(mb) 
 8.88494E-02    0.00000E+00
 9.00000E-02    9.09626E-02
 1.00000E-01    1.63449E+00
 1.05000E-01    2.81862E+00
 1.10000E-01    4.00587E+00
 1.20000E-01    6.50554E+00
 1.30000E-01    9.13130E+00
 1.33969E-01    1.02671E+01
 1.40000E-01    1.21086E+01
 1.50000E-01    1.52362E+01
 1.60000E-01    1.84927E+01
 1.70000E-01    2.18832E+01
 1.80000E-01    2.54056E+01
 1.90000E-01    2.90638E+01
 2.00000E-01    3.28819E+01
 2.25000E-01    4.31431E+01
 2.50000E-01    5.41704E+01
 2.75000E-01    6.61010E+01
 3.00000E-01    7.87069E+01
 3.14264E-01    8.63258E+01
 4.00000E-01    5.69276E+02
 4.19056E-01    6.51220E+02
 4.23890E-01    6.73562E+02
 5.00000E-01    1.02919E+03
 6.00000E-01    1.27775E+03
 7.00000E-01    1.39512E+03
 7.08411E-01    1.40136E+03
 7.12539E-01    1.40738E+03
 7.13548E-01    1.41015E+03
 7.31059E-01    1.44355E+03
 7.42100E-01    1.46822E+03
 7.80664E-01    1.54061E+03
 7.96308E-01    1.56438E+03
 8.00000E-01    1.57168E+03
 8.70751E-01    1.66513E+03
 8.77523E-01    1.67282E+03
 8.78058E-01    1.67360E+03
 8.98243E-01    1.69836E+03
 9.00000E-01    1.70050E+03
 9.19438E-01    1.72019E+03
 9.20548E-01    1.72127E+03
 9.39421E-01    1.73902E+03
 1.00000E+00    1.79429E+03
 1.10000E+00    1.86429E+03
 1.20000E+00    1.92525E+03
 1.30000E+00    1.97953E+03
 1.40000E+00    2.03049E+03
 1.50000E+00    2.07778E+03
 1.60000E+00    2.09981E+03
 1.70000E+00    2.12567E+03
 1.80000E+00    2.15550E+03
 1.90000E+00    2.18911E+03
 2.00000E+00    2.22714E+03
 2.25000E+00    2.23945E+03
 2.50000E+00    2.27091E+03
 2.75000E+00    2.25467E+03
 3.00000E+00    2.25713E+03
 3.50000E+00    2.23110E+03
 4.00000E+00    2.21479E+03
 4.50000E+00    2.21024E+03
 5.00000E+00    2.21016E+03
 5.50000E+00    2.20540E+03
 6.00000E+00    2.19023E+03
 6.50000E+00    2.16440E+03
 7.00000E+00    2.13171E+03
 7.50000E+00    2.09718E+03
 8.00000E+00    2.06510E+03
 8.50000E+00    2.03800E+03
 9.00000E+00    2.01680E+03
 9.50000E+00    2.00436E+03
 1.00000E+01    2.10155E+03
 1.05000E+01    2.36629E+03
 1.10000E+01    2.64540E+03
 1.15000E+01    2.87108E+03
 1.20000E+01    3.03662E+03
 1.25000E+01    3.15223E+03
 1.30000E+01    3.23062E+03
 1.35000E+01    3.28252E+03
 1.40000E+01    3.31804E+03
 1.45000E+01    3.33913E+03
 1.50000E+01    3.35477E+03
 1.55000E+01    3.35810E+03
 1.60000E+01    3.36128E+03
 1.65000E+01    3.35408E+03
 1.70000E+01    3.34880E+03
 1.75000E+01    3.34115E+03
 1.80000E+01    3.35165E+03
 1.85000E+01    3.37532E+03
 1.90000E+01    3.42574E+03
 1.95000E+01    3.48883E+03
 2.00000E+01    3.57395E+03
