# n + Au197 : (n,xp)    
# jendl.ad   N.Iwamoto                         EVAL-Apr14
# 
# # energies =    94
#   E(MeV)        xs(mb) 
 7.77471E-02    3.58974E-20
 8.00000E-02    3.74733E-20
 9.00000E-02    4.44686E-20
 1.00000E-01    5.14638E-20
 1.05000E-01    5.49615E-20
 1.10000E-01    5.84591E-20
 1.20000E-01    6.54543E-20
 1.30000E-01    7.24496E-20
 1.40000E-01    7.94449E-20
 1.50000E-01    8.64401E-20
 1.60000E-01    9.34354E-20
 1.70000E-01    1.00431E-19
 1.80000E-01    1.07426E-19
 1.90000E-01    1.14421E-19
 2.00000E-01    1.21416E-19
 2.25000E-01    1.42758E-19
 2.50000E-01    1.67436E-19
 2.70162E-01    1.88338E-19
 2.75000E-01    1.93353E-19
 2.80419E-01    1.98971E-19
 3.00000E-01    2.19271E-19
 4.00000E-01    4.44653E-19
 4.11245E-01    4.90209E-19
 5.00000E-01    9.27188E-19
 5.05073E-01    9.53920E-19
 5.50304E-01    1.19835E-18
 5.85986E-01    1.40115E-18
 6.00000E-01    1.48081E-18
 7.00000E-01    2.06575E-18
 7.40473E-01    2.31075E-18
 8.00000E-01    2.68512E-18
 8.59881E-01    3.11484E-18
 8.86517E-01    3.30901E-18
 8.92658E-01    3.35378E-18
 9.00000E-01    3.40730E-18
 9.40793E-01    3.70467E-18
 9.52855E-01    3.90880E-18
 1.00000E+00    4.87740E-18
 1.05045E+00    8.32440E-18
 1.10000E+00    2.43080E-17
 1.12574E+00    4.72300E-17
 1.15639E+00    1.06730E-16
 1.20000E+00    3.35160E-16
 1.22353E+00    6.12730E-16
 1.22625E+00    6.54720E-16
 1.23730E+00    8.61760E-16
 1.24836E+00    1.13210E-15
 1.26947E+00    1.88250E-15
 1.30000E+00    3.86040E-15
 1.40000E+00    3.44760E-14
 1.50000E+00    2.44320E-13
 1.60000E+00    1.45460E-12
 1.70000E+00    7.31230E-12
 1.80000E+00    3.17440E-11
 1.90000E+00    1.21360E-10
 2.00000E+00    4.14630E-10
 2.25000E+00    6.20570E-09
 2.50000E+00    5.50870E-08
 2.75000E+00    3.58410E-07
 3.00000E+00    1.65768E-06
 3.50000E+00    1.97960E-05
 4.00000E+00    1.25703E-04
 4.50000E+00    5.07221E-04
 5.00000E+00    1.45906E-03
 5.50000E+00    3.24305E-03
 6.00000E+00    5.89965E-03
 6.50000E+00    9.24286E-03
 7.00000E+00    1.31290E-02
 7.50000E+00    1.78201E-02
 8.00000E+00    2.43535E-02
 8.50000E+00    3.51535E-02
 9.00000E+00    5.46585E-02
 9.50000E+00    8.98187E-02
 1.00000E+01    1.50161E-01
 1.05000E+01    2.47255E-01
 1.10000E+01    3.94323E-01
 1.15000E+01    6.04700E-01
 1.20000E+01    8.91226E-01
 1.25000E+01    1.26680E+00
 1.30000E+01    1.74046E+00
 1.35000E+01    2.32184E+00
 1.40000E+01    3.01330E+00
 1.45000E+01    3.81934E+00
 1.50000E+01    4.73332E+00
 1.55000E+01    5.75611E+00
 1.60000E+01    6.87228E+00
 1.65000E+01    8.07891E+00
 1.70000E+01    9.35840E+00
 1.75000E+01    1.07097E+01
 1.80000E+01    1.21174E+01
 1.85000E+01    1.35596E+01
 1.90000E+01    1.50590E+01
 1.95000E+01    1.65510E+01
 2.00000E+01    1.80996E+01
