# n + Nb 93 : (n,xa)    
# jendl.ad   A.Ichihara                        EVAL-APR16
# 
# # energies =    76
#   E(MeV)        xs(mb) 
 3.11546E-02    1.68597E-04
 3.50000E-02    1.56943E-04
 4.00000E-02    1.45240E-04
 5.00000E-02    1.28284E-04
 6.00000E-02    1.16852E-04
 7.00000E-02    1.08863E-04
 8.00000E-02    1.03054E-04
 9.00000E-02    9.89398E-05
 1.00000E-01    9.60742E-05
 1.12500E-01    9.40052E-05
 1.25000E-01    9.21803E-05
 1.50000E-01    9.14379E-05
 1.75000E-01    9.29238E-05
 2.00000E-01    9.58620E-05
 2.25000E-01    1.00024E-04
 2.50000E-01    1.05291E-04
 2.75000E-01    1.11484E-04
 3.00000E-01    1.18670E-04
 3.50000E-01    1.35800E-04
 4.00000E-01    1.56898E-04
 5.00000E-01    2.13489E-04
 6.00000E-01    2.94390E-04
 6.94459E-01    4.01192E-04
 7.00000E-01    4.03200E-04
 7.51986E-01    4.60715E-04
 8.00000E-01    4.85080E-04
 8.17359E-01    4.99356E-04
 8.19208E-01    5.00164E-04
 9.00000E-01    5.41382E-04
 9.60142E-01    6.12868E-04
 9.80531E-01    6.06114E-04
 9.89568E-01    6.08742E-04
 1.00000E+00    5.97416E-04
 1.09442E+00    6.42688E-04
 1.25000E+00    7.68019E-04
 1.50000E+00    9.50645E-04
 1.75000E+00    1.53188E-03
 2.00000E+00    2.47466E-03
 2.25000E+00    3.78023E-03
 2.50000E+00    5.91650E-03
 2.75000E+00    8.61637E-03
 3.00000E+00    2.10308E-02
 3.50000E+00    3.99112E-02
 4.00000E+00    7.33821E-02
 4.50000E+00    1.30274E-01
 5.00000E+00    2.22989E-01
 5.50000E+00    3.58446E-01
 6.00000E+00    5.64317E-01
 6.50000E+00    8.45963E-01
 7.00000E+00    1.18318E+00
 7.50000E+00    1.62668E+00
 8.00000E+00    2.15836E+00
 8.50000E+00    2.77983E+00
 9.00000E+00    3.51621E+00
 9.50000E+00    4.31575E+00
 1.00000E+01    5.07999E+00
 1.05000E+01    5.89296E+00
 1.10000E+01    6.74061E+00
 1.15000E+01    7.61672E+00
 1.20000E+01    8.51467E+00
 1.25000E+01    9.43595E+00
 1.30000E+01    1.03753E+01
 1.35000E+01    1.13343E+01
 1.40000E+01    1.23069E+01
 1.45000E+01    1.32955E+01
 1.50000E+01    1.42899E+01
 1.55000E+01    1.52912E+01
 1.60000E+01    1.62946E+01
 1.65000E+01    1.72964E+01
 1.70000E+01    1.82921E+01
 1.75000E+01    1.92758E+01
 1.80000E+01    2.02468E+01
 1.85000E+01    2.12052E+01
 1.90000E+01    2.21442E+01
 1.95000E+01    2.30654E+01
 2.00000E+01    2.39681E+01
