# n + Br 81 : (n,xp)    
# jendl4.0   K.Shibata, A.Ichihara, S.Kunieda  EVAL-AUG09
# 
# # energies =    74
#   E(MeV)        xs(mb) 
 2.79426E-01    0.00000E+00
 3.00000E-01    0.00000E+00
 4.00000E-01    0.00000E+00
 5.00000E-01    0.00000E+00
 5.42884E-01    0.00000E+00
 5.44909E-01    0.00000E+00
 5.73086E-01    0.00000E+00
 6.00000E-01    0.00000E+00
 6.58001E-01    0.00000E+00
 7.00000E-01    0.00000E+00
 7.76713E-01    0.00000E+00
 7.99240E-01    0.00000E+00
 8.00000E-01    0.00000E+00
 8.38615E-01    0.00000E+00
 8.47201E-01    0.00000E+00
 9.00000E-01    0.00000E+00
 9.17294E-01    0.00000E+00
 9.87154E-01    0.00000E+00
 1.00000E+00    0.00000E+00
 1.03646E+00    0.00000E+00
 1.08941E+00    0.00000E+00
 1.11908E+00    0.00000E+00
 1.18458E+00    0.00000E+00
 1.19147E+00    0.00000E+00
 1.20473E+00    0.00000E+00
 1.25331E+00    0.00000E+00
 1.28178E+00    0.00000E+00
 1.28219E+00    0.00000E+00
 1.31621E+00    0.00000E+00
 1.33949E+00    0.00000E+00
 1.34395E+00    0.00000E+00
 1.36663E+00    0.00000E+00
 1.38860E+00    0.00000E+00
 1.41846E+00    0.00000E+00
 1.50000E+00    0.00000E+00
 1.50027E+00    0.00000E+00
 1.53176E+00    0.00000E+00
 1.54128E+00    0.00000E+00
 1.55505E+00    0.00000E+00
 1.55515E+00    0.00000E+00
 1.56082E+00    0.00000E+00
 1.56223E+00    0.00000E+00
 1.56244E+00    0.00000E+00
 1.60678E+00    0.00000E+00
 1.60719E+00    0.00000E+00
 1.61731E+00    0.00000E+00
 2.00000E+00    0.00000E+00
 2.50000E+00    7.56300E-04
 3.00000E+00    1.93500E-02
 3.50000E+00    1.10100E-01
 4.00000E+00    3.43200E-01
 4.50000E+00    7.07200E-01
 5.00000E+00    1.37000E+00
 5.50000E+00    1.78300E+00
 6.00000E+00    2.22700E+00
 6.50000E+00    2.62800E+00
 7.00000E+00    2.98300E+00
 7.50000E+00    3.49200E+00
 8.00000E+00    4.01900E+00
 8.50000E+00    4.98600E+00
 9.00000E+00    5.90800E+00
 9.50000E+00    7.55873E+00
 1.00000E+01    9.24140E+00
 1.10000E+01    1.49770E+01
 1.20000E+01    2.02320E+01
 1.30000E+01    2.66130E+01
 1.40000E+01    3.40050E+01
 1.45000E+01    3.77180E+01
 1.50000E+01    4.21600E+01
 1.60000E+01    5.06400E+01
 1.70000E+01    5.92500E+01
 1.80000E+01    6.79800E+01
 1.90000E+01    7.68500E+01
 2.00000E+01    8.52100E+01
