# n + Se 77 : (n,xp)    
# jendl4.0   S.Kamada, K.Shibata, A.Ichihara+  EVAL-MAY09
# 
# # energies =    76
#   E(MeV)        xs(mb) 
 1.64045E-01    0.00000E+00
 1.77605E-01    0.00000E+00
 2.00000E-01    0.00000E+00
 2.42133E-01    0.00000E+00
 2.53063E-01    0.00000E+00
 3.00000E-01    0.00000E+00
 3.05099E-01    0.00000E+00
 4.00000E-01    0.00000E+00
 4.45215E-01    0.00000E+00
 5.00000E-01    0.00000E+00
 5.27466E-01    0.00000E+00
 5.88630E-01    0.00000E+00
 6.00000E-01    0.00000E+00
 6.89023E-01    0.00000E+00
 7.00000E-01    0.00000E+00
 8.00000E-01    0.00000E+00
 8.06592E-01    0.00000E+00
 8.18783E-01    0.00000E+00
 8.28581E-01    0.00000E+00
 8.35242E-01    0.00000E+00
 9.00000E-01    0.00000E+00
 9.23484E-01    0.00000E+00
 9.59401E-01    0.00000E+00
 9.82760E-01    0.00000E+00
 9.91129E-01    0.00000E+00
 1.00000E+00    0.00000E+00
 1.01230E+00    5.98664E-05
 1.01836E+00    8.93445E-05
 1.03757E+00    1.82816E-04
 1.14141E+00    6.88121E-04
 1.14290E+00    6.95366E-04
 1.14731E+00    7.16811E-04
 1.18786E+00    9.14102E-04
 1.19476E+00    9.47722E-04
 1.20255E+00    9.85584E-04
 1.20875E+00    1.01575E-03
 1.24676E+00    1.20072E-03
 1.26939E+00    1.31085E-03
 1.29962E+00    1.45796E-03
 1.36929E+00    1.79698E-03
 1.38216E+00    1.85959E-03
 1.42088E+00    2.04801E-03
 1.43014E+00    2.09307E-03
 1.45787E+00    2.22800E-03
 1.50000E+00    2.43300E-03
 1.50776E+00    3.31233E-03
 1.53083E+00    5.92877E-03
 1.54096E+00    7.07736E-03
 2.00000E+00    5.91200E-02
 2.50000E+00    4.16100E-01
 3.00000E+00    1.31400E+00
 3.50000E+00    2.91600E+00
 4.00000E+00    4.58700E+00
 4.50000E+00    6.28700E+00
 5.00000E+00    7.29400E+00
 5.50000E+00    8.02600E+00
 6.00000E+00    8.10300E+00
 6.50000E+00    8.35500E+00
 7.00000E+00    8.39300E+00
 7.50000E+00    8.86900E+00
 8.00000E+00    9.35800E+00
 8.50000E+00    1.03100E+01
 9.00000E+00    1.13300E+01
 9.50000E+00    1.27700E+01
 1.00000E+01    1.44600E+01
 1.10000E+01    1.87200E+01
 1.20000E+01    2.40424E+01
 1.30000E+01    3.02288E+01
 1.40000E+01    3.74280E+01
 1.45000E+01    4.14170E+01
 1.50000E+01    4.55620E+01
 1.60000E+01    5.41200E+01
 1.70000E+01    6.23400E+01
 1.80000E+01    7.03300E+01
 1.90000E+01    7.77100E+01
 2.00000E+01    8.47200E+01
