# n + Zn 66 : (n,xa)    
# jendl4.0   N.Iwamoto                         EVAL-Dec09
# 
# # energies =    87
#   E(MeV)        xs(mb) 
 1.05000E-01    5.84785E-08
 1.10000E-01    6.06190E-08
 1.20000E-01    6.54890E-08
 1.30000E-01    7.10703E-08
 1.40000E-01    7.69360E-08
 1.50000E-01    8.35950E-08
 1.60000E-01    9.10650E-08
 1.70000E-01    9.95344E-08
 1.80000E-01    1.08907E-07
 1.90000E-01    1.19362E-07
 2.00000E-01    1.30720E-07
 2.25000E-01    1.64380E-07
 2.50000E-01    2.08280E-07
 2.75000E-01    2.65480E-07
 3.00000E-01    3.38970E-07
 4.00000E-01    8.87880E-07
 5.00000E-01    2.26442E-06
 6.00000E-01    5.56250E-06
 7.00000E-01    1.31610E-05
 8.00000E-01    2.99111E-05
 9.00000E-01    6.56125E-05
 1.00000E+00    1.38738E-04
 1.05529E+00    2.06643E-04
 1.10000E+00    1.99141E-04
 1.20000E+00    3.07404E-04
 1.30000E+00    5.09790E-04
 1.40000E+00    8.54882E-04
 1.50000E+00    1.43028E-03
 1.60000E+00    2.38745E-03
 1.70000E+00    3.93487E-03
 1.80000E+00    6.40257E-03
 1.90000E+00    1.02765E-02
 1.90160E+00    1.03510E-02
 2.00000E+00    1.47097E-02
 2.25000E+00    3.95118E-02
 2.40883E+00    7.26870E-02
 2.48863E+00    9.55667E-02
 2.50000E+00    9.80676E-02
 2.74517E+00    2.23009E-01
 2.75000E+00    2.25148E-01
 2.80568E+00    2.65770E-01
 2.80800E+00    2.65310E-01
 2.82309E+00    2.73494E-01
 2.87044E+00    3.00798E-01
 2.98341E+00    3.81975E-01
 3.00000E+00    3.87184E-01
 3.07636E+00    4.59336E-01
 3.12502E+00    5.09230E-01
 3.15288E+00    5.40845E-01
 3.26195E+00    6.80608E-01
 3.27668E+00    6.97545E-01
 3.27872E+00    6.98951E-01
 3.29099E+00    7.08045E-01
 3.50000E+00    9.92591E-01
 4.00000E+00    2.29068E+00
 4.50000E+00    4.53477E+00
 5.00000E+00    7.90317E+00
 5.50000E+00    1.21028E+01
 6.00000E+00    1.64220E+01
 6.50000E+00    2.01289E+01
 7.00000E+00    2.29438E+01
 7.50000E+00    2.49981E+01
 8.00000E+00    2.65333E+01
 8.50000E+00    2.78704E+01
 9.00000E+00    2.92567E+01
 9.50000E+00    3.13454E+01
 1.00000E+01    3.62099E+01
 1.05000E+01    4.78726E+01
 1.10000E+01    7.12316E+01
 1.15000E+01    1.01729E+02
 1.20000E+01    1.11162E+02
 1.25000E+01    1.09046E+02
 1.30000E+01    1.03493E+02
 1.35000E+01    9.79947E+01
 1.40000E+01    9.36140E+01
 1.45000E+01    9.06959E+01
 1.50000E+01    8.95122E+01
 1.55000E+01    8.95078E+01
 1.60000E+01    9.18247E+01
 1.65000E+01    9.35809E+01
 1.70000E+01    9.61588E+01
 1.75000E+01    9.91131E+01
 1.80000E+01    1.02171E+02
 1.85000E+01    1.04166E+02
 1.90000E+01    1.06699E+02
 1.95000E+01    1.08777E+02
 2.00000E+01    1.10307E+02
