# n + Zn 66 :  n        
# jendl4.0   N.Iwamoto                         EVAL-Dec09
# uncertainties: n
# # energies =    87
#   E(MeV)       xs(mb) 
 1.05000E-01    0.00000E+00
 1.10000E-01    1.74753E-06
 1.20000E-01    2.16531E-06
 1.30000E-01    2.33889E-06
 1.40000E-01    2.47249E-06
 1.50000E-01    2.59959E-06
 1.60000E-01    2.71246E-06
 1.70000E-01    2.80567E-06
 1.80000E-01    2.87706E-06
 1.90000E-01    2.92831E-06
 2.00000E-01    2.95132E-06
 2.25000E-01    2.59647E-05
 2.50000E-01    3.11588E-05
 2.75000E-01    3.56382E-05
 3.00000E-01    3.84276E-05
 4.00000E-01    1.88576E-04
 5.00000E-01    6.06581E-04
 6.00000E-01    1.53054E-03
 7.00000E-01    3.31086E-03
 8.00000E-01    6.38784E-03
 9.00000E-01    1.13629E-02
 1.00000E+00    1.89885E-02
 1.05529E+00    2.61269E-02
 1.10000E+00    2.13686E-02
 1.20000E+00    2.55195E-02
 1.30000E+00    3.25268E-02
 1.40000E+00    4.18628E-02
 1.50000E+00    5.38154E-02
 1.60000E+00    6.92568E-02
 1.70000E+00    8.84898E-02
 1.80000E+00    1.12296E-01
 1.90000E+00    1.41589E-01
 1.90160E+00    1.41962E-01
 2.00000E+00    1.59990E-01
 2.25000E+00    2.48854E-01
 2.40883E+00    3.25121E-01
 2.48863E+00    3.69068E-01
 2.50000E+00    3.68051E-01
 2.74517E+00    5.25234E-01
 2.75000E+00    5.27968E-01
 2.80568E+00    5.60126E-01
 2.80800E+00    5.56540E-01
 2.82309E+00    5.54518E-01
 2.87044E+00    5.66085E-01
 2.98341E+00    5.83759E-01
 3.00000E+00    5.83471E-01
 3.07636E+00    6.10377E-01
 3.12502E+00    6.21443E-01
 3.15288E+00    6.33742E-01
 3.26195E+00    6.77512E-01
 3.27668E+00    6.79026E-01
 3.27872E+00    6.77006E-01
 3.29099E+00    6.73404E-01
 3.50000E+00    7.13861E+01
 4.00000E+00    3.62516E+02
 4.50000E+00    7.47815E+02
 5.00000E+00    1.02030E+03
 5.50000E+00    1.18054E+03
 6.00000E+00    1.27266E+03
 6.50000E+00    1.32722E+03
 7.00000E+00    1.36110E+03
 7.50000E+00    1.38334E+03
 8.00000E+00    1.39808E+03
 8.50000E+00    1.40786E+03
 9.00000E+00    1.41189E+03
 9.50000E+00    1.41111E+03
 1.00000E+01    1.40423E+03
 1.05000E+01    1.38427E+03
 1.10000E+01    1.35306E+03
 1.15000E+01    1.28604E+03
 1.20000E+01    1.15706E+03
 1.25000E+01    1.00494E+03
 1.30000E+01    8.60692E+02
 1.35000E+01    7.32758E+02
 1.40000E+01    6.26874E+02
 1.45000E+01    5.40810E+02
 1.50000E+01    4.73398E+02
 1.55000E+01    4.18943E+02
 1.60000E+01    3.77866E+02
 1.65000E+01    3.41976E+02
 1.70000E+01    3.13154E+02
 1.75000E+01    2.88740E+02
 1.80000E+01    2.68879E+02
 1.85000E+01    2.51754E+02
 1.90000E+01    2.37202E+02
 1.95000E+01    2.24312E+02
 2.00000E+01    2.12888E+02
