# n + Zn 66 : (n,na)    
# jendl4.0   N.Iwamoto                         EVAL-Dec09
# uncertainties: n
# # energies =    28
#   E(MeV)       xs(mb) 
 4.64829E+00    0.00000E+00
 7.00000E+00    2.86510E-08
 7.50000E+00    7.56945E-06
 8.00000E+00    4.60026E-04
 8.50000E+00    1.11653E-02
 9.00000E+00    1.36695E-01
 9.50000E+00    9.86967E-01
 1.00000E+01    4.61305E+00
 1.05000E+01    1.51268E+01
 1.10000E+01    3.75944E+01
 1.15000E+01    6.71938E+01
 1.20000E+01    7.60556E+01
 1.25000E+01    7.39860E+01
 1.30000E+01    6.90637E+01
 1.35000E+01    6.48880E+01
 1.40000E+01    6.23322E+01
 1.45000E+01    6.16827E+01
 1.50000E+01    6.29764E+01
 1.55000E+01    6.56746E+01
 1.60000E+01    7.06190E+01
 1.65000E+01    7.49057E+01
 1.70000E+01    7.98251E+01
 1.75000E+01    8.49523E+01
 1.80000E+01    8.99246E+01
 1.85000E+01    9.35527E+01
 1.90000E+01    9.75470E+01
 1.95000E+01    1.00885E+02
 2.00000E+01    1.03457E+02
