# n + Zn 66 : (n,n')    
# jendl4.0   N.Iwamoto                         EVAL-Dec09
# uncertainties: n
# # energies =    87
#   E(MeV)       xs(mb) 
 1.05000E-01    0.00000E+00
 1.10000E-01    1.74753E-06
 1.20000E-01    2.16531E-06
 1.30000E-01    2.33889E-06
 1.40000E-01    2.47249E-06
 1.50000E-01    2.59959E-06
 1.60000E-01    2.71246E-06
 1.70000E-01    2.80567E-06
 1.80000E-01    2.87706E-06
 1.90000E-01    2.92831E-06
 2.00000E-01    2.95132E-06
 2.25000E-01    2.59647E-05
 2.50000E-01    3.11588E-05
 2.75000E-01    3.56382E-05
 3.00000E-01    3.84276E-05
 4.00000E-01    1.88576E-04
 5.00000E-01    6.06581E-04
 6.00000E-01    1.53054E-03
 7.00000E-01    3.31086E-03
 8.00000E-01    6.38784E-03
 9.00000E-01    1.13629E-02
 1.00000E+00    1.89885E-02
 1.05529E+00    2.61269E-02
 1.10000E+00    2.58267E+02
 1.20000E+00    4.17987E+02
 1.30000E+00    5.27533E+02
 1.40000E+00    6.15988E+02
 1.50000E+00    6.89178E+02
 1.60000E+00    7.48657E+02
 1.70000E+00    7.96446E+02
 1.80000E+00    8.34263E+02
 1.90000E+00    8.63763E+02
 1.90160E+00    8.64172E+02
 2.00000E+00    9.51463E+02
 2.25000E+00    1.06272E+03
 2.40883E+00    1.10428E+03
 2.48863E+00    1.13657E+03
 2.50000E+00    1.14144E+03
 2.74517E+00    1.22091E+03
 2.75000E+00    1.22512E+03
 2.80568E+00    1.24627E+03
 2.80800E+00    1.25036E+03
 2.82309E+00    1.26061E+03
 2.87044E+00    1.29357E+03
 2.98341E+00    1.35801E+03
 3.00000E+00    1.37504E+03
 3.07636E+00    1.41500E+03
 3.12502E+00    1.44052E+03
 3.15288E+00    1.45306E+03
 3.26195E+00    1.49978E+03
 3.27668E+00    1.50709E+03
 3.27872E+00    1.50872E+03
 3.29099E+00    1.51652E+03
 3.50000E+00    1.60069E+03
 4.00000E+00    1.71705E+03
 4.50000E+00    1.76316E+03
 5.00000E+00    1.76367E+03
 5.50000E+00    1.74209E+03
 6.00000E+00    1.71340E+03
 6.50000E+00    1.68531E+03
 7.00000E+00    1.66089E+03
 7.50000E+00    1.64095E+03
 8.00000E+00    1.62497E+03
 8.50000E+00    1.61241E+03
 9.00000E+00    1.60010E+03
 9.50000E+00    1.58725E+03
 1.00000E+01    1.57129E+03
 1.05000E+01    1.54430E+03
 1.10000E+01    1.50730E+03
 1.15000E+01    1.43540E+03
 1.20000E+01    1.30212E+03
 1.25000E+01    1.14616E+03
 1.30000E+01    9.98373E+02
 1.35000E+01    8.67284E+02
 1.40000E+01    7.58423E+02
 1.45000E+01    6.69753E+02
 1.50000E+01    5.99854E+02
 1.55000E+01    5.43211E+02
 1.60000E+01    5.00037E+02
 1.65000E+01    4.62234E+02
 1.70000E+01    4.31567E+02
 1.75000E+01    4.05381E+02
 1.80000E+01    3.83799E+02
 1.85000E+01    3.64954E+02
 1.90000E+01    3.48721E+02
 1.95000E+01    3.34127E+02
 2.00000E+01    3.21033E+02
