# n + Zn 66 : (n,n'07)  
# jendl4.0   N.Iwamoto                         EVAL-Dec09
# uncertainties: n
# # energies =    46
#   E(MeV)       xs(mb) 
 2.80800E+00    0.00000E+00
 2.82309E+00    5.99318E+00
 2.87044E+00    1.34574E+01
 2.98341E+00    2.73315E+01
 3.00000E+00    2.89368E+01
 3.07636E+00    3.72200E+01
 3.12502E+00    4.22334E+01
 3.15288E+00    4.39816E+01
 3.26195E+00    5.26215E+01
 3.27668E+00    5.35397E+01
 3.27872E+00    5.33279E+01
 3.29099E+00    5.36181E+01
 3.50000E+00    5.83751E+01
 4.00000E+00    5.49550E+01
 4.50000E+00    3.95939E+01
 5.00000E+00    2.77406E+01
 5.50000E+00    1.96374E+01
 6.00000E+00    1.39756E+01
 6.50000E+00    9.91961E+00
 7.00000E+00    6.97899E+00
 7.50000E+00    4.84634E+00
 8.00000E+00    3.34250E+00
 8.50000E+00    2.30641E+00
 9.00000E+00    1.59747E+00
 9.50000E+00    1.11610E+00
 1.00000E+01    7.90425E-01
 1.05000E+01    5.68952E-01
 1.10000E+01    4.21113E-01
 1.15000E+01    3.19581E-01
 1.20000E+01    2.51165E-01
 1.25000E+01    2.03740E-01
 1.30000E+01    1.71006E-01
 1.35000E+01    1.47568E-01
 1.40000E+01    1.30737E-01
 1.45000E+01    1.17907E-01
 1.50000E+01    1.08128E-01
 1.55000E+01    1.00155E-01
 1.60000E+01    9.37150E-02
 1.65000E+01    8.81182E-02
 1.70000E+01    8.33508E-02
 1.75000E+01    7.89944E-02
 1.80000E+01    7.51306E-02
 1.85000E+01    7.14816E-02
 1.90000E+01    6.81586E-02
 1.95000E+01    6.49777E-02
 2.00000E+01    6.20440E-02
