# n + Zn 66 : (n,t)     
# jendl4.0   N.Iwamoto                         EVAL-Dec09
# uncertainties: n
# # energies =    58
#   E(MeV)       xs(mb) 
 1.05121E+01    0.00000E+00
 1.06738E+01    7.30370E-09
 1.07946E+01    1.37730E-08
 1.08612E+01    1.74330E-08
 1.08799E+01    1.84670E-08
 1.10955E+01    3.04660E-08
 1.11302E+01    3.30100E-08
 1.11852E+01    3.75570E-08
 1.12624E+01    4.42020E-08
 1.12697E+01    4.48420E-08
 1.14038E+01    5.67910E-08
 1.14215E+01    5.83690E-08
 1.14533E+01    6.12080E-08
 1.17722E+01    8.96900E-08
 1.17737E+01    8.98260E-08
 1.18189E+01    9.39520E-08
 1.18204E+01    9.40900E-08
 1.18224E+01    9.42740E-08
 1.18301E+01    9.49850E-08
 1.18526E+01    9.70690E-08
 1.18871E+01    1.00270E-07
 1.18961E+01    1.01110E-07
 1.19728E+01    1.08240E-07
 1.19958E+01    1.10380E-07
 1.20000E+01    1.10860E-07
 1.20342E+01    6.03600E-07
 1.20565E+01    9.25210E-07
 1.20863E+01    1.35533E-06
 1.21307E+01    1.99653E-06
 1.21309E+01    1.99942E-06
 1.21440E+01    2.18870E-06
 1.21525E+01    2.31154E-06
 1.21670E+01    2.52114E-06
 1.21853E+01    2.78573E-06
 1.22210E+01    3.30196E-06
 1.22388E+01    3.55938E-06
 1.22450E+01    3.64905E-06
 1.22786E+01    4.13502E-06
 1.22813E+01    4.17408E-06
 1.22880E+01    4.27099E-06
 1.23081E+01    4.56174E-06
 1.23188E+01    4.71652E-06
 1.25000E+01    7.33770E-06
 1.30000E+01    1.30397E-04
 1.35000E+01    9.23706E-04
 1.40000E+01    3.62939E-03
 1.45000E+01    9.69148E-03
 1.50000E+01    2.05541E-02
 1.55000E+01    3.87360E-02
 1.60000E+01    6.76690E-02
 1.65000E+01    1.09757E-01
 1.70000E+01    1.65790E-01
 1.75000E+01    2.35491E-01
 1.80000E+01    3.17888E-01
 1.85000E+01    4.12973E-01
 1.90000E+01    5.17659E-01
 1.95000E+01    6.33977E-01
 2.00000E+01    7.58810E-01
