# n + In115 : (n,xt)    
# jendl4.0   S.Kunieda, A.Ichihara, K.Shibata+ EVAL-FEB22
# 
# # energies =    71
#   E(MeV)        xs(mb) 
 3.39192E-01    0.00000E+00
 3.50000E-01    0.00000E+00
 4.00000E-01    0.00000E+00
 4.50000E-01    0.00000E+00
 5.00000E-01    0.00000E+00
 5.50000E-01    0.00000E+00
 6.00000E-01    0.00000E+00
 6.02382E-01    0.00000E+00
 6.50000E-01    0.00000E+00
 7.00000E-01    0.00000E+00
 7.50000E-01    0.00000E+00
 8.00000E-01    0.00000E+00
 8.35854E-01    0.00000E+00
 8.50000E-01    0.00000E+00
 8.71716E-01    0.00000E+00
 9.00000E-01    0.00000E+00
 9.41977E-01    0.00000E+00
 9.49694E-01    0.00000E+00
 9.50000E-01    0.00000E+00
 1.00000E+00    0.00000E+00
 1.05064E+00    0.00000E+00
 1.08766E+00    0.00000E+00
 1.14251E+00    0.00000E+00
 1.20000E+00    0.00000E+00
 1.20297E+00    0.00000E+00
 1.29870E+00    0.00000E+00
 1.30192E+00    0.00000E+00
 1.35933E+00    0.00000E+00
 1.40000E+00    0.00000E+00
 1.43070E+00    0.00000E+00
 1.46150E+00    0.00000E+00
 1.47615E+00    0.00000E+00
 1.48290E+00    0.00000E+00
 1.49148E+00    0.00000E+00
 1.50157E+00    0.00000E+00
 1.60000E+00    0.00000E+00
 1.80000E+00    0.00000E+00
 2.00000E+00    0.00000E+00
 2.20000E+00    0.00000E+00
 2.40000E+00    0.00000E+00
 2.60000E+00    0.00000E+00
 2.80000E+00    0.00000E+00
 3.00000E+00    0.00000E+00
 3.25000E+00    0.00000E+00
 3.50000E+00    0.00000E+00
 3.75000E+00    0.00000E+00
 4.00000E+00    0.00000E+00
 4.25000E+00    0.00000E+00
 4.50000E+00    0.00000E+00
 4.75000E+00    0.00000E+00
 5.00000E+00    0.00000E+00
 5.50000E+00    0.00000E+00
 6.00000E+00    0.00000E+00
 6.50000E+00    0.00000E+00
 7.00000E+00    0.00000E+00
 7.50000E+00    0.00000E+00
 8.00000E+00    2.83500E-23
 8.50000E+00    1.19700E-17
 9.00000E+00    2.95600E-14
 9.50000E+00    9.34100E-12
 1.00000E+01    9.26300E-10
 1.10000E+01    1.06900E-06
 1.20000E+01    1.08400E-04
 1.30000E+01    1.55000E-03
 1.40000E+01    1.03600E-02
 1.50000E+01    4.40800E-02
 1.60000E+01    1.30000E-01
 1.70000E+01    3.23500E-01
 1.80000E+01    6.38100E-01
 1.90000E+01    1.06600E+00
 2.00000E+01    1.58500E+00
