# n + In115 : (n,a)     
# jendl4.0   S.Kunieda, A.Ichihara, K.Shibata+ EVAL-FEB22
# uncertainties: n
# # energies =    56
#   E(MeV)       xs(mb) 
 1.00000E-01    0.00000E+00
 2.00000E-01    3.83500E-12
 2.50000E-01    3.81900E-12
 3.00000E-01    7.61600E-12
 3.50000E-01    7.98200E-12
 4.00000E-01    1.60500E-11
 4.50000E-01    1.71200E-11
 5.00000E-01    3.45300E-11
 5.50000E-01    3.72200E-11
 6.00000E-01    7.43900E-11
 6.50000E-01    7.85500E-11
 7.00000E-01    1.53100E-10
 7.50000E-01    1.64200E-10
 8.00000E-01    3.18600E-10
 8.50000E-01    3.42500E-10
 9.00000E-01    6.51600E-10
 9.50000E-01    6.90500E-10
 1.00000E+00    1.26600E-09
 1.20000E+00    4.11800E-09
 1.40000E+00    1.17900E-08
 1.60000E+00    3.06900E-08
 1.80000E+00    7.71900E-08
 2.00000E+00    1.24100E-07
 2.20000E+00    3.03100E-07
 2.40000E+00    7.10200E-07
 2.60000E+00    1.66400E-06
 2.80000E+00    3.58100E-06
 3.00000E+00    7.38000E-06
 3.25000E+00    1.92300E-05
 3.50000E+00    3.70500E-05
 3.75000E+00    8.26700E-05
 4.00000E+00    1.43100E-04
 4.25000E+00    2.78200E-04
 4.50000E+00    4.34600E-04
 4.75000E+00    7.59300E-04
 5.00000E+00    1.09900E-03
 5.50000E+00    2.37100E-03
 6.00000E+00    4.51200E-03
 6.50000E+00    7.84000E-03
 7.00000E+00    1.29000E-02
 7.50000E+00    2.05300E-02
 8.00000E+00    3.13900E-02
 8.50000E+00    4.82600E-02
 9.00000E+00    7.35100E-02
 9.50000E+00    1.10900E-01
 1.00000E+01    1.65400E-01
 1.10000E+01    3.50200E-01
 1.20000E+01    6.79800E-01
 1.30000E+01    1.19100E+00
 1.40000E+01    1.88000E+00
 1.50000E+01    2.69400E+00
 1.60000E+01    3.52300E+00
 1.70000E+01    4.22900E+00
 1.80000E+01    4.69200E+00
 1.90000E+01    4.87800E+00
 2.00000E+01    4.82900E+00
