# n + Xe132 : (n,a)     
# jendl4.0   S.Kunieda, A.Ichihara, K.Shibata+ EVAL-FEB22
# uncertainties: n
# # energies =    50
#   E(MeV)       xs(mb) 
 1.00000E-01    0.00000E+00
 5.00000E-01    1.97700E-10
 5.50000E-01    2.80000E-10
 6.00000E-01    3.96400E-10
 6.50000E-01    5.60000E-10
 7.00000E-01    4.42300E-10
 7.50000E-01    4.66600E-10
 8.00000E-01    5.70900E-10
 8.50000E-01    7.27200E-10
 9.00000E-01    9.50100E-10
 9.50000E-01    1.26200E-09
 1.00000E+00    1.69100E-09
 1.20000E+00    5.67900E-09
 1.40000E+00    1.70400E-08
 1.60000E+00    4.57100E-08
 1.80000E+00    1.32100E-07
 2.00000E+00    3.45800E-07
 2.20000E+00    8.15700E-07
 2.40000E+00    1.80500E-06
 2.60000E+00    3.90400E-06
 2.80000E+00    7.74500E-06
 3.00000E+00    1.45600E-05
 3.25000E+00    2.94300E-05
 3.50000E+00    5.93500E-05
 3.75000E+00    1.14500E-04
 4.00000E+00    1.98100E-04
 4.25000E+00    3.47000E-04
 4.50000E+00    5.53100E-04
 4.75000E+00    8.89100E-04
 5.00000E+00    1.31600E-03
 5.50000E+00    2.73700E-03
 6.00000E+00    5.10300E-03
 6.50000E+00    8.71600E-03
 7.00000E+00    1.38600E-02
 7.50000E+00    2.08100E-02
 8.00000E+00    2.97300E-02
 8.50000E+00    4.09100E-02
 9.00000E+00    5.46700E-02
 9.50000E+00    7.17100E-02
 1.00000E+01    9.30500E-02
 1.10000E+01    1.55900E-01
 1.20000E+01    2.64200E-01
 1.30000E+01    4.49200E-01
 1.40000E+01    7.39000E-01
 1.50000E+01    1.13800E+00
 1.60000E+01    1.61100E+00
 1.70000E+01    2.08200E+00
 1.80000E+01    2.46500E+00
 1.90000E+01    2.71100E+00
 2.00000E+01    2.82700E+00
