# n + Xe132 : (n,xp)    
# jendl4.0   S.Kunieda, A.Ichihara, K.Shibata+ EVAL-FEB22
# 
# # energies =    65
#   E(MeV)        xs(mb) 
 6.72826E-01    0.00000E+00
 7.00000E-01    0.00000E+00
 7.50000E-01    0.00000E+00
 8.00000E-01    0.00000E+00
 8.50000E-01    0.00000E+00
 9.00000E-01    0.00000E+00
 9.50000E-01    0.00000E+00
 1.00000E+00    0.00000E+00
 1.20000E+00    0.00000E+00
 1.30784E+00    0.00000E+00
 1.40000E+00    0.00000E+00
 1.45134E+00    0.00000E+00
 1.60000E+00    0.00000E+00
 1.80000E+00    0.00000E+00
 1.81751E+00    0.00000E+00
 1.86415E+00    0.00000E+00
 1.97801E+00    0.00000E+00
 2.00000E+00    0.00000E+00
 2.00083E+00    0.00000E+00
 2.05596E+00    0.00000E+00
 2.12642E+00    0.00000E+00
 2.12800E+00    0.00000E+00
 2.18366E+00    0.00000E+00
 2.18538E+00    0.00000E+00
 2.20000E+00    0.00000E+00
 2.20395E+00    0.00000E+00
 2.23099E+00    0.00000E+00
 2.32104E+00    0.00000E+00
 2.36862E+00    0.00000E+00
 2.37120E+00    0.00000E+00
 2.40000E+00    0.00000E+00
 2.41322E+00    0.00000E+00
 2.44332E+00    0.00000E+00
 2.45340E+00    0.00000E+00
 2.60000E+00    0.00000E+00
 2.80000E+00    0.00000E+00
 3.00000E+00    5.49700E-29
 3.25000E+00    3.89400E-21
 3.50000E+00    8.02500E-17
 3.75000E+00    8.03400E-14
 4.00000E+00    1.59900E-11
 4.25000E+00    1.08700E-09
 4.50000E+00    3.39600E-08
 4.75000E+00    5.67100E-07
 5.00000E+00    5.57000E-06
 5.50000E+00    1.02800E-04
 6.00000E+00    8.34300E-04
 6.50000E+00    3.86900E-03
 7.00000E+00    1.23400E-02
 7.50000E+00    3.08100E-02
 8.00000E+00    6.58500E-02
 8.50000E+00    1.28000E-01
 9.00000E+00    2.34100E-01
 9.50000E+00    4.09100E-01
 1.00000E+01    6.84700E-01
 1.10000E+01    1.68600E+00
 1.20000E+01    3.51810E+00
 1.30000E+01    6.45515E+00
 1.40000E+01    1.06213E+01
 1.50000E+01    1.61617E+01
 1.60000E+01    2.32340E+01
 1.70000E+01    3.17250E+01
 1.80000E+01    4.15390E+01
 1.90000E+01    5.26100E+01
 2.00000E+01    6.48000E+01
