# n + Xe132 : (n,non)   
# jendl4.0   S.Kunieda, A.Ichihara, K.Shibata+ EVAL-FEB22
# uncertainties: n
# # energies =   109
#   E(MeV)       xs(mb) 
 4.40000E-03    0.00000E+00
 4.40000E-03    1.93930E+02
 5.00000E-03    1.81200E+02
 6.00000E-03    1.63200E+02
 7.00000E-03    1.48700E+02
 8.00000E-03    1.36800E+02
 9.00000E-03    1.26800E+02
 1.00000E-02    1.18300E+02
 1.25000E-02    1.01441E+02
 1.50000E-02    8.94663E+01
 1.75000E-02    8.04514E+01
 2.00000E-02    7.33800E+01
 2.50000E-02    6.32746E+01
 3.00000E-02    5.60600E+01
 4.00000E-02    4.72100E+01
 5.00000E-02    4.19300E+01
 6.00000E-02    3.83900E+01
 7.00000E-02    3.58100E+01
 8.00000E-02    3.37100E+01
 9.00000E-02    3.21300E+01
 1.00000E-01    3.08300E+01
 1.20000E-01    2.88300E+01
 1.40000E-01    2.73900E+01
 1.60000E-01    2.63400E+01
 1.80000E-01    2.54900E+01
 2.00000E-01    2.49500E+01
 2.50000E-01    2.41800E+01
 3.00000E-01    2.38200E+01
 3.50000E-01    2.38200E+01
 4.00000E-01    2.39100E+01
 4.50000E-01    2.42400E+01
 5.00000E-01    2.45900E+01
 5.50000E-01    2.51700E+01
 6.00000E-01    2.57200E+01
 6.50000E-01    2.65100E+01
 6.72826E-01    2.21018E+01
 7.00000E-01    2.73340E+02
 7.50000E-01    4.50960E+02
 8.00000E-01    5.66720E+02
 8.50000E-01    6.51930E+02
 9.00000E-01    7.19750E+02
 9.50000E-01    7.76830E+02
 1.00000E+00    8.27160E+02
 1.20000E+00    9.92300E+02
 1.30784E+00    1.00872E+03
 1.40000E+00    1.24776E+03
 1.45134E+00    1.28210E+03
 1.60000E+00    1.45134E+03
 1.80000E+00    1.58542E+03
 1.81751E+00    1.58370E+03
 1.86415E+00    1.61167E+03
 1.97801E+00    1.70126E+03
 2.00000E+00    1.73122E+03
 2.00083E+00    1.73101E+03
 2.05596E+00    1.75675E+03
 2.12642E+00    1.79768E+03
 2.12800E+00    1.79906E+03
 2.18366E+00    1.84809E+03
 2.18538E+00    1.85019E+03
 2.20000E+00    1.88696E+03
 2.20395E+00    1.88764E+03
 2.23099E+00    1.90649E+03
 2.32104E+00    1.96935E+03
 2.36862E+00    2.00277E+03
 2.37120E+00    2.00510E+03
 2.40000E+00    2.03126E+03
 2.41322E+00    2.03861E+03
 2.44332E+00    2.05996E+03
 2.45340E+00    2.07023E+03
 2.60000E+00    2.30606E+03
 2.73405E+00    2.34533E+03
 2.80000E+00    2.36468E+03
 2.81964E+00    2.36932E+03
 3.00000E+00    2.41199E+03
 3.25000E+00    2.45951E+03
 3.50000E+00    2.49136E+03
 3.75000E+00    2.51521E+03
 4.00000E+00    2.53092E+03
 4.25000E+00    2.53518E+03
 4.50000E+00    2.52931E+03
 4.75000E+00    2.51279E+03
 5.00000E+00    2.48899E+03
 5.50000E+00    2.42771E+03
 6.00000E+00    2.36506E+03
 6.50000E+00    2.31285E+03
 6.95329E+00    2.27829E+03
 7.00000E+00    2.27473E+03
 7.50000E+00    2.25025E+03
 8.00000E+00    2.23634E+03
 8.50000E+00    2.22872E+03
 8.85618E+00    2.22507E+03
 9.00000E+00    2.22360E+03
 9.00492E+00    2.22190E+03
 9.19487E+00    2.22057E+03
 9.29714E+00    2.21986E+03
 9.50000E+00    2.21844E+03
 1.00000E+01    2.21174E+03
 1.10000E+01    2.19380E+03
 1.20000E+01    2.17198E+03
 1.30000E+01    2.15026E+03
 1.40000E+01    2.13227E+03
 1.50000E+01    2.11746E+03
 1.56022E+01    2.11057E+03
 1.56602E+01    2.10991E+03
 1.60000E+01    2.10615E+03
 1.70000E+01    2.09904E+03
 1.80000E+01    2.09265E+03
 1.90000E+01    2.08717E+03
 2.00000E+01    2.07851E+03
