# n + Zn  0 : (n,n'01)
# jendl4.0   N.Iwamoto                         EVAL-Dec09
# uncertainties: n
# # energies =    88
#   E(MeV)          xs(mb) 
 1.00719E+00    7.34684E+00
 1.10000E+00    2.97265E+02
 1.20000E+00    4.44852E+02
 1.30000E+00    5.44370E+02
 1.40000E+00    6.24485E+02
 1.50000E+00    6.90674E+02
 1.60000E+00    7.43477E+02
 1.70000E+00    7.84876E+02
 1.80000E+00    8.16701E+02
 1.82774E+00    8.23722E+02
 1.90000E+00    8.02564E+02
 1.94045E+00    7.92117E+02
 2.00000E+00    7.69289E+02
 2.25000E+00    7.34961E+02
 2.34310E+00    7.20842E+02
 2.50000E+00    6.77797E+02
 2.65060E+00    6.44119E+02
 2.75000E+00    6.18150E+02
 2.77971E+00    6.10607E+02
 2.83788E+00    5.88579E+02
 3.00000E+00    5.13809E+02
 3.02680E+00    5.05249E+02
 3.04569E+00    4.97041E+02
 3.05311E+00    4.91213E+02
 3.11966E+00    4.61550E+02
 3.12633E+00    4.58735E+02
 3.14341E+00    4.52118E+02
 3.23706E+00    4.20605E+02
 3.24724E+00    4.16519E+02
 3.25649E+00    4.13134E+02
 3.29112E+00    3.98853E+02
 3.31346E+00    3.91161E+02
 3.33683E+00    3.82659E+02
 3.34920E+00    3.78518E+02
 3.35902E+00    3.74445E+02
 3.37421E+00    3.69062E+02
 3.41906E+00    3.53911E+02
 3.42299E+00    3.52414E+02
 3.46888E+00    3.37371E+02
 3.47919E+00    3.34157E+02
 3.50000E+00    3.27427E+02
 3.50677E+00    3.25788E+02
 3.51309E+00    3.24208E+02
 3.51967E+00    3.22573E+02
 3.55522E+00    3.14499E+02
 3.59453E+00    3.05798E+02
 3.60296E+00    3.04057E+02
 3.60835E+00    3.02938E+02
 3.64360E+00    2.95897E+02
 3.65396E+00    2.93919E+02
 3.65883E+00    2.92987E+02
 3.66340E+00    2.92113E+02
 3.67783E+00    2.89416E+02
 3.68423E+00    2.88227E+02
 3.68565E+00    2.87955E+02
 4.00000E+00    2.34328E+02
 4.50000E+00    1.86038E+02
 5.00000E+00    1.59091E+02
 5.50000E+00    1.39152E+02
 6.00000E+00    1.24316E+02
 6.50000E+00    1.12919E+02
 7.00000E+00    1.04002E+02
 7.50000E+00    9.69107E+01
 8.00000E+00    9.12423E+01
 8.50000E+00    8.67175E+01
 9.00000E+00    8.31394E+01
 9.50000E+00    8.03165E+01
 1.00000E+01    7.80389E+01
 1.05000E+01    7.61507E+01
 1.10000E+01    7.43277E+01
 1.15000E+01    7.25919E+01
 1.20000E+01    7.08850E+01
 1.25000E+01    6.91714E+01
 1.30000E+01    6.74703E+01
 1.35000E+01    6.58977E+01
 1.40000E+01    6.43304E+01
 1.45000E+01    6.29983E+01
 1.50000E+01    6.16685E+01
 1.55000E+01    6.05573E+01
 1.60000E+01    5.94471E+01
 1.65000E+01    5.84621E+01
 1.70000E+01    5.74776E+01
 1.75000E+01    5.65301E+01
 1.80000E+01    5.55828E+01
 1.85000E+01    5.46310E+01
 1.90000E+01    5.36793E+01
 1.95000E+01    5.27238E+01
 2.00000E+01    5.17684E+01
