# n + Zn  0 : (n,d)
# jendl4.0   N.Iwamoto                         EVAL-Dec09
# uncertainties: n
# # energies =    66
#   E(MeV)          xs(mb) 
 6.80268E+00    1.10938E-05
 7.58511E+00    9.25930E-04
 7.93531E+00    3.29545E-03
 8.00000E+00    3.73319E-03
 8.30718E+00    1.30686E-02
 8.45095E+00    1.74380E-02
 8.50000E+00    1.89288E-02
 8.55407E+00    2.32177E-02
 8.92907E+00    5.29636E-02
 8.94237E+00    5.40185E-02
 9.00000E+00    5.85899E-02
 9.04938E+00    6.75063E-02
 9.11604E+00    7.95431E-02
 9.16737E+00    8.88118E-02
 9.24610E+00    1.03028E-01
 9.36707E+00    1.24872E-01
 9.37448E+00    1.26210E-01
 9.37535E+00    1.26367E-01
 9.43576E+00    1.37275E-01
 9.46277E+00    1.42153E-01
 9.48663E+00    1.46461E-01
 9.49289E+00    1.47591E-01
 9.49820E+00    1.48550E-01
 9.50000E+00    1.48875E-01
 9.51252E+00    1.53159E-01
 9.59760E+00    1.82269E-01
 9.68512E+00    2.12214E-01
 9.70925E+00    2.20471E-01
 9.71344E+00    2.21904E-01
 9.72113E+00    2.24536E-01
 9.74146E+00    2.31491E-01
 9.74956E+00    2.34263E-01
 9.79538E+00    2.49940E-01
 9.82523E+00    2.60154E-01
 9.83843E+00    2.64670E-01
 9.84543E+00    2.67065E-01
 9.88513E+00    2.80649E-01
 9.92879E+00    2.95587E-01
 9.92949E+00    2.95827E-01
 9.93590E+00    2.98020E-01
 9.96636E+00    3.08442E-01
 9.97062E+00    3.09900E-01
 9.97753E+00    3.12264E-01
 9.98260E+00    3.13999E-01
 9.99377E+00    3.17820E-01
 1.00000E+01    3.19952E-01
 1.05000E+01    6.03246E-01
 1.10000E+01    1.02549E+00
 1.15000E+01    1.59911E+00
 1.20000E+01    2.33282E+00
 1.25000E+01    3.20046E+00
 1.30000E+01    4.17977E+00
 1.35000E+01    5.22447E+00
 1.40000E+01    6.31119E+00
 1.45000E+01    7.31201E+00
 1.50000E+01    8.27577E+00
 1.55000E+01    9.38569E+00
 1.60000E+01    1.05055E+01
 1.65000E+01    1.16002E+01
 1.70000E+01    1.26911E+01
 1.75000E+01    1.37357E+01
 1.80000E+01    1.47551E+01
 1.85000E+01    1.56576E+01
 1.90000E+01    1.65660E+01
 1.95000E+01    1.73964E+01
 2.00000E+01    1.81687E+01
