# n + Os188 : (n,xn)    
# jendl4.0   N.Iwamoto                         EVAL-Jan10
# 
# # energies =   114
#   E(MeV)        xs(mb) 
 1.05000E-01    0.00000E+00
 1.10000E-01    3.39051E-03
 1.20000E-01    4.62027E-03
 1.30000E-01    5.59875E-03
 1.40000E-01    6.36078E-03
 1.50000E-01    6.97868E-03
 1.55853E-01    7.30081E-03
 1.60000E-01    2.10482E+02
 1.70000E-01    2.86110E+02
 1.80000E-01    3.46187E+02
 1.90000E-01    4.01089E+02
 2.00000E-01    4.52895E+02
 2.25000E-01    5.72791E+02
 2.50000E-01    6.84272E+02
 2.75000E-01    7.88854E+02
 3.00000E-01    8.87985E+02
 4.00000E-01    1.22926E+03
 4.80505E-01    1.41989E+03
 5.00000E-01    1.46308E+03
 6.00000E-01    1.65022E+03
 6.36412E-01    1.70498E+03
 7.00000E-01    1.91849E+03
 7.94219E-01    2.06804E+03
 8.00000E-01    2.09181E+03
 9.00000E-01    2.22275E+03
 9.45356E-01    2.26535E+03
 9.70832E-01    2.28742E+03
 1.00000E+00    2.31163E+03
 1.09219E+00    2.36949E+03
 1.10000E+00    2.39702E+03
 1.18720E+00    2.45893E+03
 1.20000E+00    2.46407E+03
 1.28595E+00    2.49351E+03
 1.30000E+00    2.49648E+03
 1.31182E+00    2.49988E+03
 1.40000E+00    2.54684E+03
 1.42137E+00    2.55426E+03
 1.43249E+00    2.56268E+03
 1.45125E+00    2.56984E+03
 1.46535E+00    2.59630E+03
 1.47036E+00    2.60572E+03
 1.48597E+00    2.62879E+03
 1.50000E+00    2.64700E+03
 1.52283E+00    2.66330E+03
 1.52424E+00    2.66401E+03
 1.57511E+00    2.68732E+03
 1.58546E+00    2.69095E+03
 1.60000E+00    2.70116E+03
 1.62918E+00    2.71341E+03
 1.67761E+00    2.73487E+03
 1.67762E+00    2.73487E+03
 1.69433E+00    2.73962E+03
 1.69454E+00    2.73996E+03
 1.69455E+00    2.73996E+03
 1.70000E+00    2.74232E+03
 1.71342E+00    2.74705E+03
 1.73870E+00    2.75788E+03
 1.75587E+00    2.76533E+03
 1.77487E+00    2.77429E+03
 1.78050E+00    2.77775E+03
 1.80000E+00    2.78385E+03
 1.81731E+00    2.78872E+03
 1.83473E+00    2.79498E+03
 1.85281E+00    2.80107E+03
 1.86495E+00    2.80509E+03
 1.86496E+00    2.80510E+03
 1.88798E+00    2.81131E+03
 1.90000E+00    2.81434E+03
 1.90316E+00    2.81499E+03
 1.94729E+00    2.82306E+03
 1.95144E+00    2.82398E+03
 1.95906E+00    2.82557E+03
 1.96759E+00    2.82758E+03
 1.97552E+00    2.82911E+03
 1.97553E+00    2.82911E+03
 2.00000E+00    2.83337E+03
 2.25000E+00    2.85202E+03
 2.50000E+00    2.87078E+03
 2.75000E+00    2.87375E+03
 3.00000E+00    2.87965E+03
 3.50000E+00    2.87451E+03
 4.00000E+00    2.86341E+03
 4.50000E+00    2.84599E+03
 5.00000E+00    2.82392E+03
 5.50000E+00    2.79366E+03
 6.00000E+00    2.75917E+03
 6.50000E+00    2.72184E+03
 7.00000E+00    2.68893E+03
 7.50000E+00    2.66328E+03
 8.00000E+00    2.64674E+03
 8.50000E+00    2.84644E+03
 9.00000E+00    3.38631E+03
 9.50000E+00    3.85084E+03
 1.00000E+01    4.15877E+03
 1.05000E+01    4.34107E+03
 1.10000E+01    4.45706E+03
 1.15000E+01    4.52509E+03
 1.20000E+01    4.56394E+03
 1.25000E+01    4.58532E+03
 1.30000E+01    4.59648E+03
 1.35000E+01    4.60165E+03
 1.40000E+01    4.60332E+03
 1.45000E+01    4.60681E+03
 1.50000E+01    4.60652E+03
 1.55000E+01    4.64854E+03
 1.60000E+01    4.75416E+03
 1.65000E+01    4.91373E+03
 1.70000E+01    5.09915E+03
 1.75000E+01    5.28579E+03
 1.80000E+01    5.45887E+03
 1.85000E+01    5.60972E+03
 1.90000E+01    5.73549E+03
 1.95000E+01    5.83751E+03
 2.00000E+01    5.91841E+03
