# n + Dy154 : (n,xa)    
# endfb8.0   N.Iwamoto                         EVAL-Nov09
# 
# # energies =    85
#   E(MeV)        xs(mb) 
 1.05000E-01    1.40518E-01
 1.10000E-01    1.39802E-01
 1.20000E-01    1.38884E-01
 1.30000E-01    1.38388E-01
 1.40000E-01    1.38220E-01
 1.50000E-01    1.38618E-01
 1.60000E-01    1.39015E-01
 1.70000E-01    1.39910E-01
 1.80000E-01    1.40805E-01
 1.90000E-01    1.41884E-01
 2.00000E-01    1.48637E-01
 2.25000E-01    1.52707E-01
 2.50000E-01    1.57075E-01
 2.75000E-01    1.61630E-01
 3.00000E-01    1.73117E-01
 3.36772E-01    1.81957E-01
 4.00000E-01    1.61291E-01
 5.00000E-01    1.76694E-01
 6.00000E-01    2.01995E-01
 6.65150E-01    2.17066E-01
 7.00000E-01    2.17525E-01
 7.51935E-01    2.37950E-01
 8.00000E-01    2.49120E-01
 9.00000E-01    2.87762E-01
 9.11122E-01    3.03448E-01
 1.00000E+00    3.02459E-01
 1.03384E+00    3.23590E-01
 1.06501E+00    3.16824E-01
 1.10000E+00    3.17678E-01
 1.20000E+00    3.52842E-01
 1.21594E+00    3.72613E-01
 1.23210E+00    3.71872E-01
 1.26006E+00    3.78224E-01
 1.30000E+00    3.87298E-01
 1.34305E+00    4.16506E-01
 1.39941E+00    4.25854E-01
 1.40000E+00    4.24278E-01
 1.42970E+00    4.43193E-01
 1.45212E+00    4.38315E-01
 1.50000E+00    4.45432E-01
 1.51753E+00    4.68827E-01
 1.55613E+00    4.69429E-01
 1.60000E+00    4.79958E-01
 1.70000E+00    5.24931E-01
 1.80000E+00    5.69826E-01
 1.90000E+00    6.16409E-01
 2.00000E+00    6.64942E-01
 2.25000E+00    8.28537E-01
 2.50000E+00    9.37077E-01
 2.75000E+00    1.12779E+00
 3.00000E+00    1.25178E+00
 3.50000E+00    1.57361E+00
 4.00000E+00    1.89776E+00
 4.50000E+00    2.21203E+00
 5.00000E+00    2.51500E+00
 5.50000E+00    2.80802E+00
 6.00000E+00    3.10218E+00
 6.50000E+00    3.41571E+00
 7.00000E+00    3.77970E+00
 7.50000E+00    4.25955E+00
 8.00000E+00    4.89279E+00
 8.50000E+00    5.73426E+00
 9.00000E+00    6.78845E+00
 9.50000E+00    8.06831E+00
 1.00000E+01    9.20244E+00
 1.05000E+01    1.01548E+01
 1.10000E+01    1.10088E+01
 1.15000E+01    1.18589E+01
 1.20000E+01    1.27547E+01
 1.25000E+01    1.37520E+01
 1.30000E+01    1.48202E+01
 1.35000E+01    1.59545E+01
 1.40000E+01    1.71174E+01
 1.45000E+01    1.82994E+01
 1.50000E+01    1.94797E+01
 1.55000E+01    2.06543E+01
 1.60000E+01    2.19054E+01
 1.65000E+01    2.32785E+01
 1.70000E+01    2.47292E+01
 1.75000E+01    2.63648E+01
 1.80000E+01    2.81538E+01
 1.85000E+01    3.00453E+01
 1.90000E+01    3.19865E+01
 1.95000E+01    3.39605E+01
 2.00000E+01    3.58585E+01
