# n + Dy154 : (n,xn)    
# endfb8.0   N.Iwamoto                         EVAL-Nov09
# 
# # energies =    85
#   E(MeV)        xs(mb) 
 1.05000E-01    5.97649E-21
 1.10000E-01    2.57566E-03
 1.20000E-01    2.97002E-03
 1.30000E-01    3.31408E-03
 1.40000E-01    3.62445E-03
 1.50000E-01    3.91243E-03
 1.60000E-01    4.16349E-03
 1.70000E-01    4.39545E-03
 1.80000E-01    4.60698E-03
 1.90000E-01    4.79936E-03
 2.00000E-01    4.98219E-03
 2.25000E-01    2.53526E-02
 2.50000E-01    3.13657E-02
 2.75000E-01    3.65224E-02
 3.00000E-01    4.08964E-02
 3.36772E-01    1.12754E-01
 4.00000E-01    3.52458E+02
 5.00000E-01    5.70674E+02
 6.00000E-01    7.33800E+02
 6.65150E-01    8.20837E+02
 7.00000E-01    9.90629E+02
 7.51935E-01    1.07346E+03
 8.00000E-01    1.13249E+03
 9.00000E-01    1.22580E+03
 9.11122E-01    1.23500E+03
 1.00000E+00    1.43973E+03
 1.03384E+00    1.47489E+03
 1.06501E+00    1.56730E+03
 1.10000E+00    1.64779E+03
 1.20000E+00    1.74991E+03
 1.21594E+00    1.76122E+03
 1.23210E+00    1.78398E+03
 1.26006E+00    1.80636E+03
 1.30000E+00    1.83507E+03
 1.34305E+00    1.86009E+03
 1.39941E+00    1.91040E+03
 1.40000E+00    1.91575E+03
 1.42970E+00    1.95338E+03
 1.45212E+00    1.99488E+03
 1.50000E+00    2.03395E+03
 1.51753E+00    2.04359E+03
 1.55613E+00    2.08105E+03
 1.60000E+00    2.10003E+03
 1.70000E+00    2.14038E+03
 1.80000E+00    2.18315E+03
 1.90000E+00    2.22083E+03
 2.00000E+00    2.25437E+03
 2.25000E+00    2.29706E+03
 2.50000E+00    2.36762E+03
 2.75000E+00    2.39731E+03
 3.00000E+00    2.46116E+03
 3.50000E+00    2.53474E+03
 4.00000E+00    2.58898E+03
 4.50000E+00    2.62608E+03
 5.00000E+00    2.65042E+03
 5.50000E+00    2.66598E+03
 6.00000E+00    2.67540E+03
 6.50000E+00    2.67924E+03
 7.00000E+00    2.67726E+03
 7.50000E+00    2.66935E+03
 8.00000E+00    2.65653E+03
 8.50000E+00    2.63986E+03
 9.00000E+00    2.62205E+03
 9.50000E+00    2.60569E+03
 1.00000E+01    2.67767E+03
 1.05000E+01    2.83212E+03
 1.10000E+01    3.02870E+03
 1.15000E+01    3.23862E+03
 1.20000E+01    3.42642E+03
 1.25000E+01    3.58982E+03
 1.30000E+01    3.72316E+03
 1.35000E+01    3.83663E+03
 1.40000E+01    3.92776E+03
 1.45000E+01    4.00407E+03
 1.50000E+01    4.06335E+03
 1.55000E+01    4.10868E+03
 1.60000E+01    4.14259E+03
 1.65000E+01    4.16756E+03
 1.70000E+01    4.18463E+03
 1.75000E+01    4.19557E+03
 1.80000E+01    4.21248E+03
 1.85000E+01    4.23377E+03
 1.90000E+01    4.27715E+03
 1.95000E+01    4.33403E+03
 2.00000E+01    4.42870E+03
