# n + Mo 94 : (n,xa)    
# jendl4.0   K.Shibata, A.Ichihara, S.Kunieda+ EVAL-MAR09
# 
# # energies =    52
#   E(MeV)        xs(mb) 
 8.80453E-01    0.00000E+00
 9.00000E-01    0.00000E+00
 1.00000E+00    0.00000E+00
 1.50000E+00    0.00000E+00
 1.59062E+00    1.43095E-02
 1.76122E+00    4.12462E-02
 1.88432E+00    6.06833E-02
 2.00000E+00    7.89500E-02
 2.08983E+00    9.48587E-02
 2.14378E+00    1.04414E-01
 2.31985E+00    1.35596E-01
 2.34694E+00    1.40393E-01
 2.41893E+00    1.53142E-01
 2.44949E+00    1.58555E-01
 2.50000E+00    1.67500E-01
 2.56132E+00    1.82376E-01
 2.59437E+00    1.90394E-01
 2.60771E+00    1.93631E-01
 2.63955E+00    2.01355E-01
 2.73203E+00    2.23791E-01
 2.76925E+00    2.32820E-01
 2.79783E+00    2.39754E-01
 2.83594E+00    2.48999E-01
 2.86636E+00    2.56379E-01
 2.88365E+00    2.60572E-01
 2.89375E+00    2.63024E-01
 3.00000E+00    2.88800E-01
 3.50000E+00    4.98000E-01
 4.00000E+00    8.67100E-01
 4.50000E+00    1.39300E+00
 5.00000E+00    2.04700E+00
 5.50000E+00    2.98800E+00
 6.00000E+00    3.70500E+00
 6.50000E+00    4.29400E+00
 7.00000E+00    5.02600E+00
 7.50000E+00    5.66300E+00
 8.00000E+00    6.74300E+00
 8.50000E+00    7.48500E+00
 9.00000E+00    8.82100E+00
 9.50000E+00    9.87790E+00
 1.00000E+01    1.29140E+01
 1.10000E+01    1.51870E+01
 1.20000E+01    1.75450E+01
 1.30000E+01    1.97250E+01
 1.40000E+01    2.18200E+01
 1.45000E+01    2.31290E+01
 1.50000E+01    2.41060E+01
 1.60000E+01    2.63000E+01
 1.70000E+01    2.85000E+01
 1.80000E+01    3.04460E+01
 1.90000E+01    3.21610E+01
 2.00000E+01    3.37430E+01
