# n + La138 : (n,tot)   
# jendl.ad   N.Iwamoto                         EVAL-Apr14
# uncertainties: n
# # energies =    69
#   E(MeV)       xs(mb) 
 1.00000E-10    3.97296E+05
 5.00000E-09    1.08262E+05
 1.00000E-08    8.20437E+04
 1.50000E-08    6.89824E+04
 2.00000E-08    6.07299E+04
 2.50000E-08    5.49062E+04
 3.00000E-08    5.05014E+04
 3.50000E-08    4.64629E+04
 4.20000E-08    4.25408E+04
 5.00000E-08    3.92881E+04
 5.80000E-08    3.65585E+04
 6.70000E-08    3.37849E+04
 8.00000E-08    3.06442E+04
 1.00000E-07    2.67773E+04
 1.40000E-07    2.32493E+04
 1.80000E-07    2.08949E+04
 2.20000E-07    1.93667E+04
 2.50000E-07    1.83308E+04
 2.80000E-07    1.75939E+04
 3.00000E-07    1.70810E+04
 3.20000E-07    1.65169E+04
 3.50000E-07    1.57493E+04
 4.00000E-07    1.46513E+04
 5.00000E-07    1.34861E+04
 6.25000E-07    1.25707E+04
 7.80000E-07    1.20997E+04
 8.50000E-07    1.19394E+04
 9.10000E-07    1.18536E+04
 9.50000E-07    1.18179E+04
 9.72000E-07    1.17995E+04
 9.96000E-07    1.17856E+04
 1.02000E-06    1.17819E+04
 1.04500E-06    1.17827E+04
 1.07100E-06    1.17960E+04
 1.09700E-06    1.18139E+04
 1.12300E-06    1.18441E+04
 1.15000E-06    1.20136E+04
 1.30000E-06    1.26593E+04
 1.50000E-06    1.68977E+04
 2.10000E-06    4.60757E+04
 2.60000E-06    1.14498E+06
 3.30000E-06    4.44253E+04
 4.00000E-06    3.56963E+03
 9.87700E-06    9.13952E+02
 1.59680E-05    3.46814E+04
 2.77000E-05    1.98538E+02
 4.80520E-05    1.38155E+04
 7.55014E-05    1.18803E+04
 1.48728E-04    1.11325E+04
 3.67262E-04    6.11403E+03
 9.06898E-04    3.50281E+03
 1.42510E-03    2.49805E+03
 2.23945E-03    1.78301E+03
 3.51910E-03    1.28885E+03
 5.53000E-03    9.57420E+02
 9.11800E-03    7.13684E+02
 1.50300E-02    5.35285E+02
 2.47800E-02    3.96331E+02
 4.08500E-02    2.91315E+02
 6.73400E-02    2.10805E+02
 1.11000E-01    1.52227E+02
 1.83000E-01    1.12265E+02
 3.02000E-01    8.53329E+01
 5.00000E-01    7.15937E+01
 8.21000E-01    4.55854E+01
 1.35300E+00    1.98839E+01
 2.23100E+00    8.23977E+00
 3.67900E+00    2.65966E+00
 6.06500E+00    1.78066E+03
