# n + La138 : (n,d)     
# jendl.ad   N.Iwamoto                         EVAL-Apr14
# uncertainties: n
# # energies =    62
#   E(MeV)       xs(mb) 
 3.89615E+00    0.00000E+00
 4.18176E+00    1.44650E-18
 4.56265E+00    3.37560E-18
 4.80978E+00    4.16580E-15
 4.94778E+00    6.49020E-15
 5.00000E+00    7.36970E-15
 5.15712E+00    1.47810E-13
 5.19951E+00    1.85690E-13
 5.37065E+00    3.38660E-13
 5.38879E+00    3.54880E-13
 5.50000E+00    4.54280E-13
 5.70697E+00    1.15780E-10
 5.74719E+00    1.38190E-10
 5.76673E+00    1.49080E-10
 5.80199E+00    1.68730E-10
 5.80944E+00    1.72880E-10
 5.81762E+00    1.77440E-10
 5.95248E+00    2.52580E-10
 5.95852E+00    2.55950E-10
 6.00000E+00    2.79060E-10
 6.02863E+00    1.25730E-09
 6.09433E+00    3.50230E-09
 6.14135E+00    5.10900E-09
 6.14195E+00    5.12950E-09
 6.18376E+00    6.55810E-09
 6.22405E+00    7.93480E-09
 6.25326E+00    8.93290E-09
 6.25729E+00    9.07060E-09
 6.26243E+00    9.24630E-09
 6.26898E+00    9.47010E-09
 6.28650E+00    1.00690E-08
 6.32156E+00    1.12670E-08
 6.34090E+00    1.19280E-08
 6.35279E+00    1.23340E-08
 6.50000E+00    1.73640E-08
 7.00000E+00    2.92850E-07
 7.50000E+00    2.27136E-06
 8.00000E+00    1.21048E-05
 8.50000E+00    6.63993E-05
 9.00000E+00    3.92928E-04
 9.50000E+00    2.01218E-03
 1.00000E+01    7.03619E-03
 1.05000E+01    2.33483E-02
 1.10000E+01    6.35222E-02
 1.15000E+01    1.45881E-01
 1.20000E+01    2.70626E-01
 1.25000E+01    4.80644E-01
 1.30000E+01    7.70741E-01
 1.35000E+01    1.14040E+00
 1.40000E+01    1.58230E+00
 1.45000E+01    2.08816E+00
 1.50000E+01    2.64781E+00
 1.55000E+01    3.30385E+00
 1.60000E+01    3.85801E+00
 1.65000E+01    4.64279E+00
 1.70000E+01    5.28368E+00
 1.75000E+01    5.94632E+00
 1.80000E+01    6.62507E+00
 1.85000E+01    7.30356E+00
 1.90000E+01    7.84878E+00
 1.95000E+01    8.37559E+00
 2.00000E+01    8.87439E+00
