# n + Ac227 : (n,xn)    
# jendl4.0   O.Iwamoto, T.Nakagawa, et al.     EVAL-FEB10
# 
# # energies =    90
#   E(MeV)        xs(mb) 
 2.74916E-02    0.00000E+00
 3.00000E-02    1.14622E+02
 3.01132E-02    1.16797E+02
 4.65559E-02    5.01663E+02
 5.00000E-02    6.30057E+02
 7.00000E-02    9.02552E+02
 7.44694E-02    9.40157E+02
 8.49256E-02    1.03029E+03
 1.00000E-01    1.18666E+03
 1.06151E-01    1.21086E+03
 1.10428E-01    1.22770E+03
 1.20000E-01    1.26338E+03
 1.27424E-01    1.29052E+03
 1.40000E-01    1.33653E+03
 1.48658E-01    1.36882E+03
 1.60711E-01    1.45035E+03
 1.70000E-01    1.50273E+03
 1.88152E-01    1.60474E+03
 1.99593E-01    1.67107E+03
 2.00000E-01    1.67346E+03
 2.11716E-01    1.69000E+03
 2.28008E-01    1.71730E+03
 2.28009E-01    1.71730E+03
 2.50000E-01    1.75844E+03
 2.50106E-01    1.75865E+03
 2.72495E-01    1.80925E+03
 2.74354E-01    1.81393E+03
 3.00000E-01    1.89863E+03
 3.06084E-01    1.89824E+03
 3.17404E-01    1.90957E+03
 3.31506E-01    1.91988E+03
 3.43519E-01    1.93781E+03
 3.43520E-01    1.93781E+03
 4.00000E-01    2.02743E+03
 5.00000E-01    2.27309E+03
 6.00000E-01    2.36654E+03
 7.00000E-01    2.51566E+03
 8.00000E-01    2.59667E+03
 9.00000E-01    2.69001E+03
 1.00000E+00    2.79686E+03
 1.10000E+00    2.88275E+03
 1.20000E+00    2.96631E+03
 1.30000E+00    3.04879E+03
 1.40000E+00    3.12456E+03
 1.50000E+00    3.19814E+03
 1.60000E+00    3.26464E+03
 1.70000E+00    3.32466E+03
 1.80000E+00    3.37811E+03
 1.90000E+00    3.42186E+03
 2.00000E+00    3.45973E+03
 2.10000E+00    3.48620E+03
 2.20000E+00    3.50809E+03
 2.40000E+00    3.53554E+03
 2.60000E+00    3.54679E+03
 2.80000E+00    3.54486E+03
 3.00000E+00    3.53683E+03
 3.50000E+00    3.49423E+03
 4.00000E+00    3.44644E+03
 4.50000E+00    3.37126E+03
 5.00000E+00    3.32207E+03
 5.50000E+00    3.25240E+03
 6.00000E+00    3.21836E+03
 6.50000E+00    3.17938E+03
 7.00000E+00    3.30198E+03
 7.50000E+00    3.80075E+03
 8.00000E+00    4.34283E+03
 8.50000E+00    4.75430E+03
 9.00000E+00    5.05984E+03
 9.50000E+00    5.24997E+03
 1.00000E+01    5.37558E+03
 1.05000E+01    5.44204E+03
 1.10000E+01    5.48331E+03
 1.15000E+01    5.50597E+03
 1.20000E+01    5.50903E+03
 1.25000E+01    5.51128E+03
 1.30000E+01    5.54337E+03
 1.35000E+01    5.66188E+03
 1.40000E+01    5.84230E+03
 1.45000E+01    6.06320E+03
 1.50000E+01    6.29831E+03
 1.55000E+01    6.52144E+03
 1.60000E+01    6.67151E+03
 1.65000E+01    6.79487E+03
 1.70000E+01    6.89259E+03
 1.75000E+01    7.00357E+03
 1.80000E+01    7.03394E+03
 1.85000E+01    7.08455E+03
 1.90000E+01    7.12535E+03
 1.95000E+01    7.15938E+03
 2.00000E+01    7.17560E+03
