# n + Dy163 : (n,p)     
# jendl4.0   N.Iwamoto,S.Chiba                 EVAL-Nov09
# uncertainties: n
# # energies =    51
#   E(MeV)       xs(mb) 
 1.00895E+00    0.00000E+00
 1.06329E+00    1.01520E-15
 1.13775E+00    2.93750E-15
 1.23334E+00    5.51870E-15
 1.35508E+00    8.81430E-15
 1.38426E+00    9.64480E-15
 1.43357E+00    1.10850E-14
 1.46375E+00    1.19720E-14
 1.53419E+00    1.40460E-14
 1.56437E+00    1.50270E-14
 1.56438E+00    1.50280E-14
 1.65292E+00    1.83250E-14
 1.67505E+00    1.91550E-14
 2.25000E+00    4.07790E-14
 2.50000E+00    3.33480E-12
 2.75000E+00    1.10990E-10
 3.00000E+00    1.68650E-09
 3.50000E+00    8.78090E-08
 4.00000E+00    1.30405E-06
 4.50000E+00    8.88520E-06
 5.00000E+00    3.60494E-05
 5.50000E+00    1.02280E-04
 6.00000E+00    2.18202E-04
 6.50000E+00    4.32557E-04
 7.00000E+00    8.81177E-04
 7.50000E+00    2.00698E-03
 8.00000E+00    4.92295E-03
 8.50000E+00    1.19870E-02
 9.00000E+00    2.75579E-02
 9.50000E+00    5.87633E-02
 1.00000E+01    1.15935E-01
 1.05000E+01    2.12362E-01
 1.10000E+01    3.62598E-01
 1.15000E+01    5.81495E-01
 1.20000E+01    8.80428E-01
 1.25000E+01    1.26956E+00
 1.30000E+01    1.75291E+00
 1.35000E+01    2.33457E+00
 1.40000E+01    3.01051E+00
 1.45000E+01    3.77693E+00
 1.50000E+01    4.61823E+00
 1.55000E+01    5.51726E+00
 1.60000E+01    6.44365E+00
 1.65000E+01    7.35993E+00
 1.70000E+01    8.25621E+00
 1.75000E+01    9.06989E+00
 1.80000E+01    9.82113E+00
 1.85000E+01    1.04987E+01
 1.90000E+01    1.10982E+01
 1.95000E+01    1.16255E+01
 2.00000E+01    1.20591E+01
