# n + Dy163 : (n,n'11)  
# jendl4.0   N.Iwamoto,S.Chiba                 EVAL-Nov09
# uncertainties: n
# # energies =    84
#   E(MeV)       xs(mb) 
 4.24456E-01    0.00000E+00
 4.30328E-01    2.97693E+01
 4.52786E-01    5.75493E+01
 4.78331E-01    7.78596E+01
 5.00000E-01    8.83804E+01
 5.00278E-01    8.85124E+01
 5.17738E-01    9.63097E+01
 5.56444E-01    1.09164E+02
 5.69504E-01    1.12137E+02
 5.72231E-01    1.12683E+02
 5.91569E-01    1.16314E+02
 6.00000E-01    1.17736E+02
 6.15789E-01    1.20293E+02
 6.50250E-01    1.22334E+02
 6.64086E-01    1.23132E+02
 7.00000E-01    1.22611E+02
 7.09364E-01    1.22859E+02
 7.15877E-01    1.22536E+02
 7.16408E-01    1.22286E+02
 7.22717E-01    1.20990E+02
 7.32104E-01    1.20007E+02
 7.42226E-01    1.19153E+02
 7.44581E-01    1.18753E+02
 7.70952E-01    1.16726E+02
 7.85935E-01    1.14992E+02
 7.98306E-01    1.13455E+02
 8.00000E-01    1.13134E+02
 8.06273E-01    1.12446E+02
 8.25877E-01    1.10599E+02
 8.31919E-01    1.09349E+02
 8.56393E-01    1.06635E+02
 8.64607E-01    1.05771E+02
 8.88481E-01    1.03142E+02
 8.89768E-01    1.02840E+02
 9.00000E-01    1.01479E+02
 1.00000E+00    9.16509E+01
 1.10000E+00    8.21769E+01
 1.20000E+00    7.34750E+01
 1.30000E+00    6.51303E+01
 1.40000E+00    5.74311E+01
 1.50000E+00    5.01710E+01
 1.60000E+00    4.38007E+01
 1.70000E+00    3.78771E+01
 1.80000E+00    3.27268E+01
 1.90000E+00    2.83572E+01
 2.00000E+00    2.43494E+01
 2.25000E+00    1.70371E+01
 2.50000E+00    1.15026E+01
 2.75000E+00    7.96219E+00
 3.00000E+00    5.47444E+00
 3.50000E+00    2.55619E+00
 4.00000E+00    1.19214E+00
 4.50000E+00    5.55442E-01
 5.00000E+00    2.63191E-01
 5.50000E+00    1.30992E-01
 6.00000E+00    7.13535E-02
 6.50000E+00    4.40763E-02
 7.00000E+00    3.12952E-02
 7.50000E+00    2.49428E-02
 8.00000E+00    2.14286E-02
 8.50000E+00    1.92016E-02
 9.00000E+00    1.75967E-02
 9.50000E+00    1.63218E-02
 1.00000E+01    1.52446E-02
 1.05000E+01    1.43071E-02
 1.10000E+01    1.34558E-02
 1.15000E+01    1.26949E-02
 1.20000E+01    1.19917E-02
 1.25000E+01    1.13553E-02
 1.30000E+01    1.07629E-02
 1.35000E+01    1.02227E-02
 1.40000E+01    9.71947E-03
 1.45000E+01    9.25818E-03
 1.50000E+01    8.82812E-03
 1.55000E+01    8.43276E-03
 1.60000E+01    8.06131E-03
 1.65000E+01    7.71521E-03
 1.70000E+01    7.39174E-03
 1.75000E+01    7.08730E-03
 1.80000E+01    6.80233E-03
 1.85000E+01    6.53149E-03
 1.90000E+01    6.27932E-03
 1.95000E+01    6.03685E-03
 2.00000E+01    5.80915E-03
