# n + Dy163 : (n,n'26)  
# jendl4.0   N.Iwamoto,S.Chiba                 EVAL-Nov09
# uncertainties: n
# # energies =    66
#   E(MeV)       xs(mb) 
 7.16408E-01    0.00000E+00
 7.22717E-01    1.30729E+01
 7.32104E-01    2.02283E+01
 7.42226E-01    2.58790E+01
 7.44581E-01    2.70064E+01
 7.70952E-01    3.77933E+01
 7.85935E-01    4.25760E+01
 7.98306E-01    4.57805E+01
 8.00000E-01    4.62115E+01
 8.06273E-01    4.78290E+01
 8.25877E-01    5.22753E+01
 8.31919E-01    5.33981E+01
 8.56393E-01    5.77626E+01
 8.64607E-01    5.88501E+01
 8.88481E-01    6.18422E+01
 8.89768E-01    6.18939E+01
 9.00000E-01    6.29213E+01
 1.00000E+00    6.80247E+01
 1.10000E+00    6.68180E+01
 1.20000E+00    6.30093E+01
 1.30000E+00    5.80421E+01
 1.40000E+00    5.27640E+01
 1.50000E+00    4.74984E+01
 1.60000E+00    4.24058E+01
 1.70000E+00    3.76275E+01
 1.80000E+00    3.30758E+01
 1.90000E+00    2.91026E+01
 2.00000E+00    2.53472E+01
 2.25000E+00    1.83460E+01
 2.50000E+00    1.25365E+01
 2.75000E+00    8.90354E+00
 3.00000E+00    6.15748E+00
 3.50000E+00    2.93015E+00
 4.00000E+00    1.38485E+00
 4.50000E+00    6.52668E-01
 5.00000E+00    3.10420E-01
 5.50000E+00    1.52452E-01
 6.00000E+00    8.00358E-02
 6.50000E+00    4.66974E-02
 7.00000E+00    3.12109E-02
 7.50000E+00    2.37385E-02
 8.00000E+00    1.98147E-02
 8.50000E+00    1.74852E-02
 9.00000E+00    1.59060E-02
 9.50000E+00    1.47072E-02
 1.00000E+01    1.37223E-02
 1.05000E+01    1.28781E-02
 1.10000E+01    1.21176E-02
 1.15000E+01    1.14406E-02
 1.20000E+01    1.08148E-02
 1.25000E+01    1.02488E-02
 1.30000E+01    9.72163E-03
 1.35000E+01    9.24116E-03
 1.40000E+01    8.79253E-03
 1.45000E+01    8.38099E-03
 1.50000E+01    7.99616E-03
 1.55000E+01    7.64042E-03
 1.60000E+01    7.30822E-03
 1.65000E+01    6.99899E-03
 1.70000E+01    6.70989E-03
 1.75000E+01    6.43779E-03
 1.80000E+01    6.18137E-03
 1.85000E+01    5.93715E-03
 1.90000E+01    5.71008E-03
 1.95000E+01    5.49146E-03
 2.00000E+01    5.28662E-03
