# n + Dy163 : (n,n'08)  
# jendl4.0   N.Iwamoto,S.Chiba                 EVAL-Nov09
# uncertainties: n
# # energies =    88
#   E(MeV)       xs(mb) 
 3.92166E-01    0.00000E+00
 4.00000E-01    4.23287E+01
 4.14935E-01    6.73329E+01
 4.17811E-01    7.11231E+01
 4.24456E-01    7.89964E+01
 4.30328E-01    8.18816E+01
 4.52786E-01    9.52783E+01
 4.78331E-01    1.09466E+02
 5.00000E-01    1.15811E+02
 5.00278E-01    1.15902E+02
 5.17738E-01    1.21296E+02
 5.56444E-01    1.29292E+02
 5.69504E-01    1.31400E+02
 5.72231E-01    1.31762E+02
 5.91569E-01    1.34301E+02
 6.00000E-01    1.34863E+02
 6.15789E-01    1.35885E+02
 6.50250E-01    1.36148E+02
 6.64086E-01    1.36535E+02
 7.00000E-01    1.34629E+02
 7.09364E-01    1.34332E+02
 7.15877E-01    1.33606E+02
 7.16408E-01    1.33306E+02
 7.22717E-01    1.31549E+02
 7.32104E-01    1.30274E+02
 7.42226E-01    1.29200E+02
 7.44581E-01    1.28737E+02
 7.70952E-01    1.26228E+02
 7.85935E-01    1.24211E+02
 7.98306E-01    1.22297E+02
 8.00000E-01    1.21898E+02
 8.06273E-01    1.20958E+02
 8.25877E-01    1.18392E+02
 8.31919E-01    1.17026E+02
 8.56393E-01    1.13991E+02
 8.64607E-01    1.13028E+02
 8.88481E-01    1.10118E+02
 8.89768E-01    1.09789E+02
 9.00000E-01    1.08156E+02
 1.00000E+00    9.68792E+01
 1.10000E+00    8.62430E+01
 1.20000E+00    7.66194E+01
 1.30000E+00    6.75186E+01
 1.40000E+00    5.92200E+01
 1.50000E+00    5.14859E+01
 1.60000E+00    4.48460E+01
 1.70000E+00    3.85884E+01
 1.80000E+00    3.33293E+01
 1.90000E+00    2.88355E+01
 2.00000E+00    2.46629E+01
 2.25000E+00    1.72570E+01
 2.50000E+00    1.16137E+01
 2.75000E+00    8.04170E+00
 3.00000E+00    5.66188E+00
 3.50000E+00    2.71129E+00
 4.00000E+00    1.32907E+00
 4.50000E+00    6.79490E-01
 5.00000E+00    3.76612E-01
 5.50000E+00    2.35109E-01
 6.00000E+00    1.67177E-01
 6.50000E+00    1.32479E-01
 7.00000E+00    1.13066E-01
 7.50000E+00    1.00786E-01
 8.00000E+00    9.19573E-02
 8.50000E+00    8.49499E-02
 9.00000E+00    7.90316E-02
 9.50000E+00    7.38517E-02
 1.00000E+01    6.92301E-02
 1.05000E+01    6.50889E-02
 1.10000E+01    6.12685E-02
 1.15000E+01    5.78271E-02
 1.20000E+01    5.46321E-02
 1.25000E+01    5.17348E-02
 1.30000E+01    4.90376E-02
 1.35000E+01    4.65787E-02
 1.40000E+01    4.42869E-02
 1.45000E+01    4.21859E-02
 1.50000E+01    4.02266E-02
 1.55000E+01    3.84119E-02
 1.60000E+01    3.67213E-02
 1.65000E+01    3.51465E-02
 1.70000E+01    3.36747E-02
 1.75000E+01    3.22891E-02
 1.80000E+01    3.09923E-02
 1.85000E+01    2.97594E-02
 1.90000E+01    2.86118E-02
 1.95000E+01    2.74989E-02
 2.00000E+01    2.64544E-02
