# n + Dy163 : (n,xn)    
# jendl4.0   N.Iwamoto,S.Chiba                 EVAL-Nov09
# 
# # energies =   117
#   E(MeV)        xs(mb) 
 7.38997E-02    0.00000E+00
 8.00000E-02    2.13165E+02
 9.00000E-02    3.00809E+02
 1.00000E-01    3.59391E+02
 1.05000E-01    3.81934E+02
 1.10000E-01    4.04482E+02
 1.20000E-01    4.42753E+02
 1.30000E-01    4.75330E+02
 1.40000E-01    5.04012E+02
 1.50000E-01    5.29942E+02
 1.60000E-01    5.52933E+02
 1.68375E-01    5.71164E+02
 1.70000E-01    5.86409E+02
 1.80000E-01    6.22226E+02
 1.90000E-01    6.54588E+02
 2.00000E-01    6.85744E+02
 2.25000E-01    7.53833E+02
 2.50000E-01    8.14206E+02
 2.52442E-01    8.19803E+02
 2.75000E-01    1.00097E+03
 2.83315E-01    1.03608E+03
 2.87363E-01    1.05708E+03
 3.00000E-01    1.16439E+03
 3.38627E-01    1.33399E+03
 3.38628E-01    1.33400E+03
 3.53324E-01    1.39983E+03
 3.92166E-01    1.54965E+03
 4.00000E-01    1.60167E+03
 4.14935E-01    1.66179E+03
 4.17811E-01    1.67259E+03
 4.24456E-01    1.69577E+03
 4.30328E-01    1.73202E+03
 4.52786E-01    1.85870E+03
 4.78331E-01    1.97156E+03
 5.00000E-01    2.06556E+03
 5.00278E-01    2.06654E+03
 5.17738E-01    2.12314E+03
 5.56444E-01    2.24066E+03
 5.69504E-01    2.27872E+03
 5.72231E-01    2.28869E+03
 5.91569E-01    2.33765E+03
 6.00000E-01    2.35854E+03
 6.15789E-01    2.39374E+03
 6.50250E-01    2.46344E+03
 6.64086E-01    2.48916E+03
 7.00000E-01    2.55211E+03
 7.09364E-01    2.56631E+03
 7.09365E-01    2.56631E+03
 7.15877E-01    2.57716E+03
 7.16408E-01    2.57924E+03
 7.22717E-01    2.59460E+03
 7.32104E-01    2.61216E+03
 7.42226E-01    2.63014E+03
 7.44581E-01    2.63438E+03
 7.70951E-01    2.67376E+03
 7.70952E-01    2.67377E+03
 7.85935E-01    2.69584E+03
 7.98306E-01    2.71440E+03
 8.00000E-01    2.71709E+03
 8.06273E-01    2.72563E+03
 8.25877E-01    2.75262E+03
 8.31919E-01    2.76156E+03
 8.56393E-01    2.79134E+03
 8.64607E-01    2.80139E+03
 8.88481E-01    2.82798E+03
 8.89768E-01    2.83009E+03
 8.89769E-01    2.83009E+03
 9.00000E-01    2.84190E+03
 1.00000E+00    2.93130E+03
 1.10000E+00    2.99202E+03
 1.20000E+00    3.03897E+03
 1.30000E+00    3.06088E+03
 1.40000E+00    3.07663E+03
 1.50000E+00    3.08816E+03
 1.60000E+00    3.08477E+03
 1.70000E+00    3.08112E+03
 1.80000E+00    3.07775E+03
 1.90000E+00    3.07498E+03
 2.00000E+00    3.07296E+03
 2.25000E+00    3.04863E+03
 2.50000E+00    3.04054E+03
 2.75000E+00    3.02103E+03
 3.00000E+00    3.01663E+03
 3.50000E+00    2.99817E+03
 4.00000E+00    2.96966E+03
 4.50000E+00    2.93239E+03
 5.00000E+00    2.89436E+03
 5.50000E+00    2.85890E+03
 6.00000E+00    2.82615E+03
 6.50000E+00    2.80750E+03
 7.00000E+00    3.09475E+03
 7.50000E+00    3.60293E+03
 8.00000E+00    4.03139E+03
 8.50000E+00    4.32079E+03
 9.00000E+00    4.49711E+03
 9.50000E+00    4.60065E+03
 1.00000E+01    4.65951E+03
 1.05000E+01    4.69048E+03
 1.10000E+01    4.70433E+03
 1.15000E+01    4.71232E+03
 1.20000E+01    4.70967E+03
 1.25000E+01    4.70689E+03
 1.30000E+01    4.69803E+03
 1.35000E+01    4.69061E+03
 1.40000E+01    4.67951E+03
 1.45000E+01    4.67010E+03
 1.50000E+01    4.66008E+03
 1.55000E+01    4.68030E+03
 1.60000E+01    4.76692E+03
 1.65000E+01    4.92197E+03
 1.70000E+01    5.11598E+03
 1.75000E+01    5.31665E+03
 1.80000E+01    5.50536E+03
 1.85000E+01    5.66125E+03
 1.90000E+01    5.80056E+03
 1.95000E+01    5.90384E+03
 2.00000E+01    5.98832E+03
