# n + Dy163 : (n,g)     
# jendl4.0   N.Iwamoto,S.Chiba                 EVAL-Nov09
# uncertainties: n
# # energies =    69
#   E(MeV)       xs(mb) 
 1.00000E-10    8.50455E+05
 5.00000E-09    2.32703E+05
 1.00000E-08    1.76945E+05
 1.50000E-08    1.49254E+05
 2.00000E-08    1.31837E+05
 2.50000E-08    1.19583E+05
 3.00000E-08    1.10365E+05
 3.50000E-08    1.01956E+05
 4.20000E-08    9.38240E+04
 5.00000E-08    8.71166E+04
 5.80000E-08    8.15420E+04
 6.70000E-08    7.59438E+04
 8.00000E-08    6.96887E+04
 1.00000E-07    6.22095E+04
 1.40000E-07    5.57334E+04
 1.80000E-07    5.17692E+04
 2.20000E-07    4.94442E+04
 2.50000E-07    4.80702E+04
 2.80000E-07    4.72232E+04
 3.00000E-07    4.67236E+04
 3.20000E-07    4.62841E+04
 3.50000E-07    4.59343E+04
 4.00000E-07    4.62517E+04
 5.00000E-07    4.86603E+04
 6.25000E-07    5.50598E+04
 7.80000E-07    6.35856E+04
 8.50000E-07    7.05059E+04
 9.10000E-07    7.71393E+04
 9.50000E-07    8.19644E+04
 9.72000E-07    8.59770E+04
 9.96000E-07    9.05988E+04
 1.02000E-06    9.58395E+04
 1.04500E-06    1.01939E+05
 1.07100E-06    1.08942E+05
 1.09700E-06    1.16864E+05
 1.12300E-06    1.26065E+05
 1.15000E-06    1.70691E+05
 1.30000E-06    4.08354E+05
 1.50000E-06    3.06344E+06
 2.10000E-06    8.86780E+04
 2.60000E-06    2.01591E+04
 3.30000E-06    7.62752E+03
 4.00000E-06    4.18192E+03
 9.87700E-06    2.52479E+04
 1.59680E-05    2.46160E+05
 2.77000E-05    2.25238E+04
 4.80520E-05    1.09264E+05
 7.55014E-05    4.49320E+04
 1.48728E-04    2.82879E+04
 3.67262E-04    1.61353E+04
 9.06898E-04    9.23565E+03
 1.42510E-03    6.51225E+03
 2.23945E-03    4.67997E+03
 3.51910E-03    3.38374E+03
 5.53000E-03    2.46390E+03
 9.11800E-03    1.82944E+03
 1.50300E-02    1.40107E+03
 2.47800E-02    1.08370E+03
 4.08500E-02    8.45392E+02
 6.73400E-02    6.15109E+02
 1.11000E-01    4.28617E+02
 1.83000E-01    2.97998E+02
 3.02000E-01    1.70972E+02
 5.00000E-01    8.70641E+01
 8.21000E-01    5.23619E+01
 1.35300E+00    3.23953E+01
 2.23100E+00    1.67162E+01
 3.67900E+00    4.95640E+00
 6.06500E+00    1.10725E+00
