# n + Dy163 : (n,n'15)  
# jendl4.0   N.Iwamoto,S.Chiba                 EVAL-Nov09
# uncertainties: n
# # energies =    79
#   E(MeV)       xs(mb) 
 5.00278E-01    0.00000E+00
 5.17738E-01    1.49420E+00
 5.56444E-01    3.78355E+00
 5.69504E-01    4.56653E+00
 5.72231E-01    4.73172E+00
 5.91569E-01    5.85669E+00
 6.00000E-01    6.19653E+00
 6.15789E-01    6.96448E+00
 6.50250E-01    8.62449E+00
 6.64086E-01    9.05815E+00
 7.00000E-01    1.05450E+01
 7.09364E-01    1.08918E+01
 7.15877E-01    1.11318E+01
 7.16408E-01    1.11514E+01
 7.22717E-01    1.13861E+01
 7.32104E-01    1.15596E+01
 7.42226E-01    1.17020E+01
 7.44581E-01    1.17600E+01
 7.70952E-01    1.24959E+01
 7.85935E-01    1.29503E+01
 7.98306E-01    1.33376E+01
 8.00000E-01    1.33912E+01
 8.06273E-01    1.35587E+01
 8.25877E-01    1.40792E+01
 8.31919E-01    1.42418E+01
 8.56393E-01    1.48323E+01
 8.64607E-01    1.50185E+01
 8.88481E-01    1.56044E+01
 8.89768E-01    1.56361E+01
 9.00000E-01    1.58920E+01
 1.00000E+00    1.75576E+01
 1.10000E+00    1.82252E+01
 1.20000E+00    1.83763E+01
 1.30000E+00    1.80439E+01
 1.40000E+00    1.74253E+01
 1.50000E+00    1.65914E+01
 1.60000E+00    1.54307E+01
 1.70000E+00    1.43470E+01
 1.80000E+00    1.30980E+01
 1.90000E+00    1.19638E+01
 2.00000E+00    1.09327E+01
 2.25000E+00    8.43724E+00
 2.50000E+00    6.31650E+00
 2.75000E+00    4.69619E+00
 3.00000E+00    3.60247E+00
 3.50000E+00    1.93745E+00
 4.00000E+00    1.03924E+00
 4.50000E+00    5.68778E-01
 5.00000E+00    3.28471E-01
 5.50000E+00    2.06991E-01
 6.00000E+00    1.45012E-01
 6.50000E+00    1.12287E-01
 7.00000E+00    9.39636E-02
 7.50000E+00    8.26789E-02
 8.00000E+00    7.48777E-02
 8.50000E+00    6.89012E-02
 9.00000E+00    6.39786E-02
 9.50000E+00    5.97364E-02
 1.00000E+01    5.59842E-02
 1.05000E+01    5.26375E-02
 1.10000E+01    4.95583E-02
 1.15000E+01    4.67864E-02
 1.20000E+01    4.42142E-02
 1.25000E+01    4.18808E-02
 1.30000E+01    3.97086E-02
 1.35000E+01    3.77267E-02
 1.40000E+01    3.58796E-02
 1.45000E+01    3.41846E-02
 1.50000E+01    3.26042E-02
 1.55000E+01    3.11391E-02
 1.60000E+01    2.97745E-02
 1.65000E+01    2.85033E-02
 1.70000E+01    2.73152E-02
 1.75000E+01    2.61970E-02
 1.80000E+01    2.51500E-02
 1.85000E+01    2.41519E-02
 1.90000E+01    2.32174E-02
 1.95000E+01    2.23197E-02
 2.00000E+01    2.14762E-02
