# n + Dy163 : (n,n'05)  
# jendl4.0   N.Iwamoto,S.Chiba                 EVAL-Nov09
# uncertainties: n
# # energies =    92
#   E(MeV)       xs(mb) 
 2.87363E-01    0.00000E+00
 3.00000E-01    9.90020E+01
 3.38628E-01    1.79531E+02
 3.53324E-01    1.95241E+02
 3.92166E-01    2.33461E+02
 4.00000E-01    2.37614E+02
 4.14935E-01    2.47536E+02
 4.17811E-01    2.49321E+02
 4.24456E-01    2.52880E+02
 4.30328E-01    2.54431E+02
 4.52786E-01    2.56337E+02
 4.78331E-01    2.55949E+02
 5.00000E-01    2.52588E+02
 5.00278E-01    2.52575E+02
 5.17738E-01    2.52039E+02
 5.56444E-01    2.46038E+02
 5.69504E-01    2.42548E+02
 5.72231E-01    2.40956E+02
 5.91569E-01    2.36626E+02
 6.00000E-01    2.33699E+02
 6.15789E-01    2.30243E+02
 6.50250E-01    2.24616E+02
 6.64086E-01    2.21755E+02
 7.00000E-01    2.15900E+02
 7.09364E-01    2.14519E+02
 7.15877E-01    2.13571E+02
 7.16408E-01    2.13168E+02
 7.22717E-01    2.10647E+02
 7.32104E-01    2.08125E+02
 7.42226E-01    2.05232E+02
 7.44581E-01    2.04652E+02
 7.70952E-01    1.99451E+02
 7.85935E-01    1.96718E+02
 7.98306E-01    1.93597E+02
 8.00000E-01    1.93235E+02
 8.06273E-01    1.91948E+02
 8.25877E-01    1.86982E+02
 8.31919E-01    1.85503E+02
 8.56393E-01    1.80074E+02
 8.64607E-01    1.77867E+02
 8.88481E-01    1.72996E+02
 8.89768E-01    1.72504E+02
 9.00000E-01    1.70040E+02
 1.00000E+00    1.49771E+02
 1.10000E+00    1.30023E+02
 1.20000E+00    1.12429E+02
 1.30000E+00    9.67163E+01
 1.40000E+00    8.28727E+01
 1.50000E+00    7.13180E+01
 1.60000E+00    6.08493E+01
 1.70000E+00    5.22170E+01
 1.80000E+00    4.49517E+01
 1.90000E+00    3.83971E+01
 2.00000E+00    3.29294E+01
 2.25000E+00    2.31822E+01
 2.50000E+00    1.55856E+01
 2.75000E+00    1.08789E+01
 3.00000E+00    7.54482E+00
 3.50000E+00    3.58264E+00
 4.00000E+00    1.71587E+00
 4.50000E+00    8.37813E-01
 5.00000E+00    4.28126E-01
 5.50000E+00    2.37440E-01
 6.00000E+00    1.47851E-01
 6.50000E+00    1.04528E-01
 7.00000E+00    8.25455E-02
 7.50000E+00    7.03503E-02
 8.00000E+00    6.26758E-02
 8.50000E+00    5.71900E-02
 9.00000E+00    5.28637E-02
 9.50000E+00    4.92268E-02
 1.00000E+01    4.60544E-02
 1.05000E+01    4.32468E-02
 1.10000E+01    4.06745E-02
 1.15000E+01    3.83677E-02
 1.20000E+01    3.62308E-02
 1.25000E+01    3.42972E-02
 1.30000E+01    3.24983E-02
 1.35000E+01    3.08607E-02
 1.40000E+01    2.93345E-02
 1.45000E+01    2.79372E-02
 1.50000E+01    2.66337E-02
 1.55000E+01    2.54273E-02
 1.60000E+01    2.43030E-02
 1.65000E+01    2.32560E-02
 1.70000E+01    2.22774E-02
 1.75000E+01    2.13559E-02
 1.80000E+01    2.04940E-02
 1.85000E+01    1.96739E-02
 1.90000E+01    1.89113E-02
 1.95000E+01    1.81766E-02
 2.00000E+01    1.74883E-02
