# n + Dy163 : (n,n'13)  
# jendl4.0   N.Iwamoto,S.Chiba                 EVAL-Nov09
# uncertainties: n
# # energies =    82
#   E(MeV)       xs(mb) 
 4.52786E-01    0.00000E+00
 4.78331E-01    6.16441E+01
 5.00000E-01    8.05993E+01
 5.00278E-01    8.08292E+01
 5.17738E-01    9.37276E+01
 5.56444E-01    1.12118E+02
 5.69504E-01    1.15410E+02
 5.72231E-01    1.15371E+02
 5.91569E-01    1.19741E+02
 6.00000E-01    1.21030E+02
 6.15789E-01    1.24077E+02
 6.50250E-01    1.30256E+02
 6.64086E-01    1.31367E+02
 7.00000E-01    1.34017E+02
 7.09364E-01    1.34824E+02
 7.15877E-01    1.35339E+02
 7.16408E-01    1.35198E+02
 7.22717E-01    1.34624E+02
 7.32104E-01    1.34652E+02
 7.42226E-01    1.34443E+02
 7.44581E-01    1.34465E+02
 7.70952E-01    1.34335E+02
 7.85935E-01    1.34037E+02
 7.98306E-01    1.33341E+02
 8.00000E-01    1.33285E+02
 8.06273E-01    1.33132E+02
 8.25877E-01    1.31736E+02
 8.31919E-01    1.31419E+02
 8.56393E-01    1.30109E+02
 8.64607E-01    1.29185E+02
 8.88481E-01    1.27495E+02
 8.89768E-01    1.27254E+02
 9.00000E-01    1.26405E+02
 1.00000E+00    1.18453E+02
 1.10000E+00    1.08262E+02
 1.20000E+00    9.78447E+01
 1.30000E+00    8.72058E+01
 1.40000E+00    7.71216E+01
 1.50000E+00    6.75852E+01
 1.60000E+00    5.88436E+01
 1.70000E+00    5.10118E+01
 1.80000E+00    4.39755E+01
 1.90000E+00    3.80369E+01
 2.00000E+00    3.27687E+01
 2.25000E+00    2.28642E+01
 2.50000E+00    1.55097E+01
 2.75000E+00    1.07636E+01
 3.00000E+00    7.56317E+00
 3.50000E+00    3.63402E+00
 4.00000E+00    1.76702E+00
 4.50000E+00    8.78239E-01
 5.00000E+00    4.60972E-01
 5.50000E+00    2.66513E-01
 6.00000E+00    1.74750E-01
 6.50000E+00    1.29686E-01
 7.00000E+00    1.06082E-01
 7.50000E+00    9.23574E-02
 8.00000E+00    8.32612E-02
 8.50000E+00    7.64591E-02
 9.00000E+00    7.09266E-02
 9.50000E+00    6.61880E-02
 1.00000E+01    6.20084E-02
 1.05000E+01    5.82857E-02
 1.10000E+01    5.48626E-02
 1.15000E+01    5.17830E-02
 1.20000E+01    4.89263E-02
 1.25000E+01    4.63359E-02
 1.30000E+01    4.39250E-02
 1.35000E+01    4.17263E-02
 1.40000E+01    3.96774E-02
 1.45000E+01    3.77981E-02
 1.50000E+01    3.60459E-02
 1.55000E+01    3.44295E-02
 1.60000E+01    3.29236E-02
 1.65000E+01    3.15208E-02
 1.70000E+01    3.01994E-02
 1.75000E+01    2.89547E-02
 1.80000E+01    2.77894E-02
 1.85000E+01    2.66822E-02
 1.90000E+01    2.56511E-02
 1.95000E+01    2.46601E-02
 2.00000E+01    2.37292E-02
