# n + Dy163 : (n,n'28)  
# jendl4.0   N.Iwamoto,S.Chiba                 EVAL-Nov09
# uncertainties: n
# # energies =    64
#   E(MeV)       xs(mb) 
 7.32104E-01    0.00000E+00
 7.42226E-01    1.04432E+01
 7.44581E-01    1.15315E+01
 7.70952E-01    2.01888E+01
 7.85935E-01    2.39069E+01
 7.98306E-01    2.65756E+01
 8.00000E-01    2.69282E+01
 8.06273E-01    2.81981E+01
 8.25877E-01    3.15459E+01
 8.31919E-01    3.25479E+01
 8.56393E-01    3.59951E+01
 8.64607E-01    3.69524E+01
 8.88481E-01    3.95807E+01
 8.89768E-01    3.97132E+01
 9.00000E-01    4.07700E+01
 1.00000E+00    4.74069E+01
 1.10000E+00    4.94684E+01
 1.20000E+00    4.93515E+01
 1.30000E+00    4.76357E+01
 1.40000E+00    4.51312E+01
 1.50000E+00    4.20878E+01
 1.60000E+00    3.85328E+01
 1.70000E+00    3.48917E+01
 1.80000E+00    3.11869E+01
 1.90000E+00    2.77741E+01
 2.00000E+00    2.44716E+01
 2.25000E+00    1.79669E+01
 2.50000E+00    1.24010E+01
 2.75000E+00    8.89774E+00
 3.00000E+00    6.28526E+00
 3.50000E+00    3.09639E+00
 4.00000E+00    1.52469E+00
 4.50000E+00    7.56506E-01
 5.00000E+00    3.87698E-01
 5.50000E+00    2.13438E-01
 6.00000E+00    1.31187E-01
 6.50000E+00    9.14946E-02
 7.00000E+00    7.15211E-02
 7.50000E+00    6.06119E-02
 8.00000E+00    5.38850E-02
 8.50000E+00    4.91664E-02
 9.00000E+00    4.54937E-02
 9.50000E+00    4.24278E-02
 1.00000E+01    3.97597E-02
 1.05000E+01    3.73979E-02
 1.10000E+01    3.52315E-02
 1.15000E+01    3.32848E-02
 1.20000E+01    3.14748E-02
 1.25000E+01    2.98324E-02
 1.30000E+01    2.83002E-02
 1.35000E+01    2.69027E-02
 1.40000E+01    2.55971E-02
 1.45000E+01    2.43998E-02
 1.50000E+01    2.32805E-02
 1.55000E+01    2.22502E-02
 1.60000E+01    2.12822E-02
 1.65000E+01    2.03813E-02
 1.70000E+01    1.95389E-02
 1.75000E+01    1.87461E-02
 1.80000E+01    1.80039E-02
 1.85000E+01    1.72923E-02
 1.90000E+01    1.66307E-02
 1.95000E+01    1.59937E-02
 2.00000E+01    1.53970E-02
