# n + Dy163 : (n,n'03)  
# jendl4.0   N.Iwamoto,S.Chiba                 EVAL-Nov09
# uncertainties: n
# # energies =    95
#   E(MeV)       xs(mb) 
 2.52442E-01    0.00000E+00
 2.75000E-01    1.72341E+02
 2.83315E-01    1.97412E+02
 2.87363E-01    2.08374E+02
 3.00000E-01    2.31867E+02
 3.38628E-01    2.94406E+02
 3.53324E-01    3.11936E+02
 3.92166E-01    3.41344E+02
 4.00000E-01    3.39380E+02
 4.14935E-01    3.43816E+02
 4.17811E-01    3.44699E+02
 4.24456E-01    3.46786E+02
 4.30328E-01    3.44229E+02
 4.52786E-01    3.34542E+02
 4.78331E-01    3.23163E+02
 5.00000E-01    3.10655E+02
 5.00278E-01    3.10565E+02
 5.17738E-01    3.05662E+02
 5.56444E-01    2.92300E+02
 5.69504E-01    2.86130E+02
 5.72231E-01    2.84104E+02
 5.91569E-01    2.76448E+02
 6.00000E-01    2.73395E+02
 6.15789E-01    2.68899E+02
 6.50250E-01    2.59985E+02
 6.64086E-01    2.56217E+02
 7.00000E-01    2.45324E+02
 7.09364E-01    2.43260E+02
 7.15877E-01    2.41569E+02
 7.16408E-01    2.40965E+02
 7.22717E-01    2.36961E+02
 7.32104E-01    2.33454E+02
 7.42226E-01    2.30034E+02
 7.44581E-01    2.29214E+02
 7.70952E-01    2.21308E+02
 7.85935E-01    2.16337E+02
 7.98306E-01    2.11646E+02
 8.00000E-01    2.11033E+02
 8.06273E-01    2.09095E+02
 8.25877E-01    2.02648E+02
 8.31919E-01    2.00350E+02
 8.56393E-01    1.93225E+02
 8.64607E-01    1.90454E+02
 8.88481E-01    1.83300E+02
 8.89768E-01    1.82644E+02
 9.00000E-01    1.79377E+02
 1.00000E+00    1.53832E+02
 1.10000E+00    1.31175E+02
 1.20000E+00    1.11941E+02
 1.30000E+00    9.52545E+01
 1.40000E+00    8.12140E+01
 1.50000E+00    6.92340E+01
 1.60000E+00    5.89512E+01
 1.70000E+00    5.05051E+01
 1.80000E+00    4.32056E+01
 1.90000E+00    3.68568E+01
 2.00000E+00    3.15684E+01
 2.25000E+00    2.22039E+01
 2.50000E+00    1.48351E+01
 2.75000E+00    1.03359E+01
 3.00000E+00    7.23895E+00
 3.50000E+00    3.46156E+00
 4.00000E+00    1.69419E+00
 4.50000E+00    8.66486E-01
 5.00000E+00    4.79737E-01
 5.50000E+00    2.97633E-01
 6.00000E+00    2.09535E-01
 6.50000E+00    1.64445E-01
 7.00000E+00    1.39359E-01
 7.50000E+00    1.23666E-01
 8.00000E+00    1.12522E-01
 8.50000E+00    1.03738E-01
 9.00000E+00    9.63724E-02
 9.50000E+00    8.99566E-02
 1.00000E+01    8.42520E-02
 1.05000E+01    7.91524E-02
 1.10000E+01    7.44549E-02
 1.15000E+01    7.02323E-02
 1.20000E+01    6.63150E-02
 1.25000E+01    6.27692E-02
 1.30000E+01    5.94692E-02
 1.35000E+01    5.64659E-02
 1.40000E+01    5.36666E-02
 1.45000E+01    5.11046E-02
 1.50000E+01    4.87145E-02
 1.55000E+01    4.65114E-02
 1.60000E+01    4.44578E-02
 1.65000E+01    4.25451E-02
 1.70000E+01    4.07575E-02
 1.75000E+01    3.90736E-02
 1.80000E+01    3.74990E-02
 1.85000E+01    3.59905E-02
 1.90000E+01    3.45860E-02
 1.95000E+01    3.32323E-02
 2.00000E+01    3.19651E-02
