# n + Dy163 : (n,n'02)  
# jendl4.0   N.Iwamoto,S.Chiba                 EVAL-Nov09
# uncertainties: n
# # energies =   102
#   E(MeV)       xs(mb) 
 1.68375E-01    0.00000E+00
 1.70000E-01    1.53094E+01
 1.80000E-01    3.69619E+01
 1.90000E-01    5.57296E+01
 2.00000E-01    7.38189E+01
 2.25000E-01    1.15570E+02
 2.50000E-01    1.51940E+02
 2.52442E-01    1.55217E+02
 2.75000E-01    1.77813E+02
 2.83315E-01    1.86671E+02
 2.87363E-01    1.87377E+02
 3.00000E-01    1.86631E+02
 3.38628E-01    2.07415E+02
 3.53324E-01    2.09603E+02
 3.92166E-01    2.24078E+02
 4.00000E-01    2.26409E+02
 4.14935E-01    2.31539E+02
 4.17811E-01    2.32177E+02
 4.24456E-01    2.34169E+02
 4.30328E-01    2.35530E+02
 4.52786E-01    2.39375E+02
 4.78331E-01    2.39313E+02
 5.00000E-01    2.39586E+02
 5.00278E-01    2.39603E+02
 5.17738E-01    2.40556E+02
 5.56444E-01    2.39231E+02
 5.69504E-01    2.37675E+02
 5.72231E-01    2.36600E+02
 5.91569E-01    2.34544E+02
 6.00000E-01    2.31907E+02
 6.15789E-01    2.30204E+02
 6.50250E-01    2.29059E+02
 6.64086E-01    2.27095E+02
 7.00000E-01    2.25921E+02
 7.09364E-01    2.25931E+02
 7.15877E-01    2.25974E+02
 7.16408E-01    2.25829E+02
 7.22717E-01    2.25159E+02
 7.32104E-01    2.24121E+02
 7.42226E-01    2.22396E+02
 7.44581E-01    2.22206E+02
 7.70952E-01    2.21096E+02
 7.85935E-01    2.20618E+02
 7.98306E-01    2.20049E+02
 8.00000E-01    2.20007E+02
 8.06273E-01    2.19826E+02
 8.25877E-01    2.18360E+02
 8.31919E-01    2.18015E+02
 8.56393E-01    2.16576E+02
 8.64607E-01    2.15855E+02
 8.88481E-01    2.14591E+02
 8.89768E-01    2.14396E+02
 9.00000E-01    2.13746E+02
 1.00000E+00    2.07057E+02
 1.10000E+00    1.97190E+02
 1.20000E+00    1.87990E+02
 1.30000E+00    1.77805E+02
 1.40000E+00    1.69544E+02
 1.50000E+00    1.62476E+02
 1.60000E+00    1.54622E+02
 1.70000E+00    1.48153E+02
 1.80000E+00    1.42599E+02
 1.90000E+00    1.38281E+02
 2.00000E+00    1.34964E+02
 2.25000E+00    1.25500E+02
 2.50000E+00    1.18240E+02
 2.75000E+00    1.12248E+02
 3.00000E+00    1.07731E+02
 3.50000E+00    1.00870E+02
 4.00000E+00    9.62631E+01
 4.50000E+00    9.29341E+01
 5.00000E+00    9.05242E+01
 5.50000E+00    8.86988E+01
 6.00000E+00    8.70771E+01
 6.50000E+00    8.53701E+01
 7.00000E+00    8.34481E+01
 7.50000E+00    8.13104E+01
 8.00000E+00    7.90222E+01
 8.50000E+00    7.66674E+01
 9.00000E+00    7.43232E+01
 9.50000E+00    7.20508E+01
 1.00000E+01    6.98922E+01
 1.05000E+01    6.79412E+01
 1.10000E+01    6.59905E+01
 1.15000E+01    6.43121E+01
 1.20000E+01    6.26339E+01
 1.25000E+01    6.11769E+01
 1.30000E+01    5.97202E+01
 1.35000E+01    5.84315E+01
 1.40000E+01    5.71431E+01
 1.45000E+01    5.59896E+01
 1.50000E+01    5.48362E+01
 1.55000E+01    5.37948E+01
 1.60000E+01    5.27535E+01
 1.65000E+01    5.18040E+01
 1.70000E+01    5.08547E+01
 1.75000E+01    4.99801E+01
 1.80000E+01    4.91057E+01
 1.85000E+01    4.82962E+01
 1.90000E+01    4.74869E+01
 1.95000E+01    4.67410E+01
 2.00000E+01    4.59951E+01
