# n + Dy163 : (n,n'10)  
# jendl4.0   N.Iwamoto,S.Chiba                 EVAL-Nov09
# uncertainties: n
# # energies =    85
#   E(MeV)       xs(mb) 
 4.17811E-01    0.00000E+00
 4.24456E-01    1.59942E-01
 4.30328E-01    2.57032E-01
 4.52786E-01    7.05043E-01
 4.78331E-01    1.35477E+00
 5.00000E-01    2.02790E+00
 5.00278E-01    2.03710E+00
 5.17738E-01    2.50709E+00
 5.56444E-01    3.84851E+00
 5.69504E-01    4.33254E+00
 5.72231E-01    4.43040E+00
 5.91569E-01    5.17119E+00
 6.00000E-01    5.45290E+00
 6.15789E-01    6.10852E+00
 6.50250E-01    7.59167E+00
 6.64086E-01    8.11521E+00
 7.00000E-01    9.73511E+00
 7.09364E-01    1.02067E+01
 7.15877E-01    1.05398E+01
 7.16408E-01    1.05672E+01
 7.22717E-01    1.08789E+01
 7.32104E-01    1.12500E+01
 7.42226E-01    1.16017E+01
 7.44581E-01    1.16992E+01
 7.70952E-01    1.28565E+01
 7.85935E-01    1.35530E+01
 7.98306E-01    1.41433E+01
 8.00000E-01    1.42253E+01
 8.06273E-01    1.45406E+01
 8.25877E-01    1.54660E+01
 8.31919E-01    1.57518E+01
 8.56393E-01    1.68550E+01
 8.64607E-01    1.72348E+01
 8.88481E-01    1.83598E+01
 8.89768E-01    1.84210E+01
 9.00000E-01    1.89099E+01
 1.00000E+00    2.29784E+01
 1.10000E+00    2.56954E+01
 1.20000E+00    2.74027E+01
 1.30000E+00    2.81542E+01
 1.40000E+00    2.84006E+01
 1.50000E+00    2.82225E+01
 1.60000E+00    2.75841E+01
 1.70000E+00    2.67752E+01
 1.80000E+00    2.60791E+01
 1.90000E+00    2.55421E+01
 2.00000E+00    2.49698E+01
 2.25000E+00    2.32147E+01
 2.50000E+00    2.18633E+01
 2.75000E+00    2.05571E+01
 3.00000E+00    1.96672E+01
 3.50000E+00    1.80759E+01
 4.00000E+00    1.69596E+01
 4.50000E+00    1.61983E+01
 5.00000E+00    1.56979E+01
 5.50000E+00    1.53226E+01
 6.00000E+00    1.49456E+01
 6.50000E+00    1.44978E+01
 7.00000E+00    1.39666E+01
 7.50000E+00    1.33684E+01
 8.00000E+00    1.27288E+01
 8.50000E+00    1.20751E+01
 9.00000E+00    1.14342E+01
 9.50000E+00    1.08273E+01
 1.00000E+01    1.02685E+01
 1.05000E+01    9.78747E+00
 1.10000E+01    9.30654E+00
 1.15000E+01    8.91407E+00
 1.20000E+01    8.52164E+00
 1.25000E+01    8.18942E+00
 1.30000E+01    7.85723E+00
 1.35000E+01    7.56447E+00
 1.40000E+01    7.27174E+00
 1.45000E+01    7.00868E+00
 1.50000E+01    6.74564E+00
 1.55000E+01    6.50836E+00
 1.60000E+01    6.27110E+00
 1.65000E+01    6.05654E+00
 1.70000E+01    5.84200E+00
 1.75000E+01    5.64550E+00
 1.80000E+01    5.44902E+00
 1.85000E+01    5.26678E+00
 1.90000E+01    5.08455E+00
 1.95000E+01    4.91523E+00
 2.00000E+01    4.74591E+00
