# n + Dy163 : (n,xa)    
# jendl4.0   N.Iwamoto,S.Chiba                 EVAL-Nov09
# 
# # energies =   117
#   E(MeV)        xs(mb) 
 7.38997E-02    3.31452E-05
 8.00000E-02    3.01817E-05
 9.00000E-02    2.83119E-05
 1.00000E-01    2.69277E-05
 1.05000E-01    2.64244E-05
 1.10000E-01    2.59211E-05
 1.20000E-01    2.51505E-05
 1.30000E-01    2.45962E-05
 1.40000E-01    2.41761E-05
 1.50000E-01    2.38632E-05
 1.60000E-01    2.36942E-05
 1.68375E-01    2.35791E-05
 1.70000E-01    2.32418E-05
 1.80000E-01    2.29054E-05
 1.90000E-01    2.27184E-05
 2.00000E-01    2.26061E-05
 2.25000E-01    2.25792E-05
 2.50000E-01    2.28488E-05
 2.52442E-01    2.28751E-05
 2.75000E-01    2.15594E-05
 2.83315E-01    2.14922E-05
 2.87363E-01    2.13188E-05
 3.00000E-01    2.05700E-05
 3.38627E-01    2.02689E-05
 3.38628E-01    2.02689E-05
 3.53324E-01    2.00855E-05
 3.92166E-01    1.95654E-05
 4.00000E-01    1.91505E-05
 4.14935E-01    1.90752E-05
 4.17811E-01    1.90607E-05
 4.24456E-01    1.90696E-05
 4.30328E-01    1.88302E-05
 4.52786E-01    1.81585E-05
 4.78331E-01    1.77244E-05
 5.00000E-01    1.73561E-05
 5.00278E-01    1.73514E-05
 5.17738E-01    1.73669E-05
 5.56444E-01    1.74013E-05
 5.69504E-01    1.73885E-05
 5.72231E-01    1.73394E-05
 5.91569E-01    1.74199E-05
 6.00000E-01    1.74446E-05
 6.15789E-01    1.76328E-05
 6.50250E-01    1.80845E-05
 6.64086E-01    1.83012E-05
 7.00000E-01    1.88962E-05
 7.09364E-01    1.91073E-05
 7.09365E-01    1.91073E-05
 7.15877E-01    1.92389E-05
 7.16408E-01    1.92362E-05
 7.22717E-01    1.92038E-05
 7.32104E-01    1.93098E-05
 7.42226E-01    1.94241E-05
 7.44581E-01    1.94507E-05
 7.70951E-01    2.00206E-05
 7.70952E-01    2.00206E-05
 7.85935E-01    2.03102E-05
 7.98306E-01    2.05333E-05
 8.00000E-01    2.05639E-05
 8.06273E-01    2.06770E-05
 8.25877E-01    2.10305E-05
 8.31919E-01    2.11395E-05
 8.56393E-01    2.16842E-05
 8.64607E-01    2.19007E-05
 8.88481E-01    2.24983E-05
 8.89768E-01    2.25275E-05
 8.89769E-01    2.25275E-05
 9.00000E-01    2.27504E-05
 1.00000E+00    2.58178E-05
 1.10000E+00    2.92310E-05
 1.20000E+00    3.33416E-05
 1.30000E+00    3.80618E-05
 1.40000E+00    4.36323E-05
 1.50000E+00    5.00730E-05
 1.60000E+00    5.73380E-05
 1.70000E+00    6.57926E-05
 1.80000E+00    7.54089E-05
 1.90000E+00    8.62967E-05
 2.00000E+00    9.86172E-05
 2.25000E+00    1.37757E-04
 2.50000E+00    1.85144E-04
 2.75000E+00    2.47255E-04
 3.00000E+00    3.31457E-04
 3.50000E+00    5.39931E-04
 4.00000E+00    8.21590E-04
 4.50000E+00    1.18700E-03
 5.00000E+00    1.64234E-03
 5.50000E+00    2.21029E-03
 6.00000E+00    2.94575E-03
 6.50000E+00    3.96266E-03
 7.00000E+00    5.50250E-03
 7.50000E+00    7.99915E-03
 8.00000E+00    1.20692E-02
 8.50000E+00    1.89877E-02
 9.00000E+00    3.03594E-02
 9.50000E+00    4.86097E-02
 1.00000E+01    7.71801E-02
 1.05000E+01    1.20839E-01
 1.10000E+01    1.85056E-01
 1.15000E+01    2.76223E-01
 1.20000E+01    4.00397E-01
 1.25000E+01    5.62946E-01
 1.30000E+01    7.67149E-01
 1.35000E+01    1.01469E+00
 1.40000E+01    1.30412E+00
 1.45000E+01    1.63414E+00
 1.50000E+01    2.00017E+00
 1.55000E+01    2.39825E+00
 1.60000E+01    2.82218E+00
 1.65000E+01    3.26795E+00
 1.70000E+01    3.72939E+00
 1.75000E+01    4.20254E+00
 1.80000E+01    4.68437E+00
 1.85000E+01    5.16980E+00
 1.90000E+01    5.65594E+00
 1.95000E+01    6.13940E+00
 2.00000E+01    6.62047E+00
