# n + Dy163 : (n,n'34)  
# jendl4.0   N.Iwamoto,S.Chiba                 EVAL-Nov09
# uncertainties: n
# # energies =    57
#   E(MeV)       xs(mb) 
 8.06273E-01    0.00000E+00
 8.25877E-01    1.75162E+01
 8.31919E-01    2.00101E+01
 8.56393E-01    2.78343E+01
 8.64607E-01    2.99073E+01
 8.88481E-01    3.52303E+01
 8.89768E-01    3.54276E+01
 9.00000E-01    3.72874E+01
 1.00000E+00    4.90987E+01
 1.10000E+00    5.30838E+01
 1.20000E+00    5.34766E+01
 1.30000E+00    5.18469E+01
 1.40000E+00    4.92259E+01
 1.50000E+00    4.59737E+01
 1.60000E+00    4.22737E+01
 1.70000E+00    3.83859E+01
 1.80000E+00    3.44979E+01
 1.90000E+00    3.05721E+01
 2.00000E+00    2.71030E+01
 2.25000E+00    1.97264E+01
 2.50000E+00    1.35322E+01
 2.75000E+00    9.60568E+00
 3.00000E+00    6.78141E+00
 3.50000E+00    3.30923E+00
 4.00000E+00    1.63159E+00
 4.50000E+00    8.23206E-01
 5.00000E+00    4.37632E-01
 5.50000E+00    2.55420E-01
 6.00000E+00    1.68699E-01
 6.50000E+00    1.25922E-01
 7.00000E+00    1.03465E-01
 7.50000E+00    9.03928E-02
 8.00000E+00    8.17192E-02
 8.50000E+00    7.52287E-02
 9.00000E+00    6.99384E-02
 9.50000E+00    6.53934E-02
 1.00000E+01    6.13719E-02
 1.05000E+01    5.77784E-02
 1.10000E+01    5.44636E-02
 1.15000E+01    5.14769E-02
 1.20000E+01    4.86946E-02
 1.25000E+01    4.61693E-02
 1.30000E+01    4.38098E-02
 1.35000E+01    4.16573E-02
 1.40000E+01    3.96440E-02
 1.45000E+01    3.77978E-02
 1.50000E+01    3.60703E-02
 1.55000E+01    3.44713E-02
 1.60000E+01    3.29797E-02
 1.65000E+01    3.15916E-02
 1.70000E+01    3.02933E-02
 1.75000E+01    2.90610E-02
 1.80000E+01    2.79087E-02
 1.85000E+01    2.68118E-02
 1.90000E+01    2.57929E-02
 1.95000E+01    2.48640E-02
 2.00000E+01    2.38884E-02
