# n + Dy163 : (n,n'09)  
# jendl4.0   N.Iwamoto,S.Chiba                 EVAL-Nov09
# uncertainties: n
# # energies =    86
#   E(MeV)       xs(mb) 
 4.14935E-01    0.00000E+00
 4.17811E-01    1.39141E+00
 4.24456E-01    2.70533E+00
 4.30328E-01    3.78868E+00
 4.52786E-01    8.20483E+00
 4.78331E-01    1.32423E+01
 5.00000E-01    1.76183E+01
 5.00278E-01    1.76741E+01
 5.17738E-01    2.09166E+01
 5.56444E-01    2.74356E+01
 5.69504E-01    2.92746E+01
 5.72231E-01    2.95575E+01
 5.91569E-01    3.22981E+01
 6.00000E-01    3.27349E+01
 6.15789E-01    3.45406E+01
 6.50250E-01    3.82144E+01
 6.64086E-01    3.88518E+01
 7.00000E-01    4.20900E+01
 7.09364E-01    4.29732E+01
 7.15877E-01    4.35704E+01
 7.16408E-01    4.36104E+01
 7.22717E-01    4.40589E+01
 7.32104E-01    4.43130E+01
 7.42226E-01    4.43027E+01
 7.44581E-01    4.43903E+01
 7.70952E-01    4.56707E+01
 7.85935E-01    4.65127E+01
 7.98306E-01    4.71837E+01
 8.00000E-01    4.72802E+01
 8.06273E-01    4.76272E+01
 8.25877E-01    4.83729E+01
 8.31919E-01    4.86072E+01
 8.56393E-01    4.92981E+01
 8.64607E-01    4.94668E+01
 8.88481E-01    5.01750E+01
 8.89768E-01    5.02121E+01
 9.00000E-01    5.05257E+01
 1.00000E+00    5.13374E+01
 1.10000E+00    4.94978E+01
 1.20000E+00    4.66778E+01
 1.30000E+00    4.30582E+01
 1.40000E+00    3.93220E+01
 1.50000E+00    3.54499E+01
 1.60000E+00    3.17868E+01
 1.70000E+00    2.81695E+01
 1.80000E+00    2.49704E+01
 1.90000E+00    2.21905E+01
 2.00000E+00    1.95105E+01
 2.25000E+00    1.43441E+01
 2.50000E+00    1.01786E+01
 2.75000E+00    7.32480E+00
 3.00000E+00    5.27622E+00
 3.50000E+00    2.64131E+00
 4.00000E+00    1.31486E+00
 4.50000E+00    6.57707E-01
 5.00000E+00    3.38405E-01
 5.50000E+00    1.85084E-01
 6.00000E+00    1.11500E-01
 6.50000E+00    7.56357E-02
 7.00000E+00    5.76187E-02
 7.50000E+00    4.79260E-02
 8.00000E+00    4.21014E-02
 8.50000E+00    3.81326E-02
 9.00000E+00    3.51194E-02
 9.50000E+00    3.26492E-02
 1.00000E+01    3.05259E-02
 1.05000E+01    2.86618E-02
 1.10000E+01    2.69617E-02
 1.15000E+01    2.54391E-02
 1.20000E+01    2.40304E-02
 1.25000E+01    2.27550E-02
 1.30000E+01    2.15688E-02
 1.35000E+01    2.04878E-02
 1.40000E+01    1.94807E-02
 1.45000E+01    1.85564E-02
 1.50000E+01    1.76938E-02
 1.55000E+01    1.68973E-02
 1.60000E+01    1.61530E-02
 1.65000E+01    1.54597E-02
 1.70000E+01    1.48117E-02
 1.75000E+01    1.42018E-02
 1.80000E+01    1.36310E-02
 1.85000E+01    1.30884E-02
 1.90000E+01    1.25832E-02
 1.95000E+01    1.20974E-02
 2.00000E+01    1.16413E-02
