# n + Dy163 : (n,n'23)  
# jendl4.0   N.Iwamoto,S.Chiba                 EVAL-Nov09
# uncertainties: n
# # energies =    70
#   E(MeV)       xs(mb) 
 6.64086E-01    0.00000E+00
 7.00000E-01    2.65297E+01
 7.09364E-01    2.99537E+01
 7.15877E-01    3.20785E+01
 7.16408E-01    3.22067E+01
 7.22717E-01    3.37622E+01
 7.32104E-01    3.62526E+01
 7.42226E-01    3.88038E+01
 7.44581E-01    3.92316E+01
 7.70952E-01    4.47214E+01
 7.85935E-01    4.69044E+01
 7.98306E-01    4.85086E+01
 8.00000E-01    4.86427E+01
 8.06273E-01    4.93453E+01
 8.25877E-01    5.14336E+01
 8.31919E-01    5.17996E+01
 8.56393E-01    5.39136E+01
 8.64607E-01    5.45824E+01
 8.88481E-01    5.53829E+01
 8.89768E-01    5.53274E+01
 9.00000E-01    5.54249E+01
 1.00000E+00    5.62119E+01
 1.10000E+00    5.38126E+01
 1.20000E+00    5.02439E+01
 1.30000E+00    4.61202E+01
 1.40000E+00    4.18773E+01
 1.50000E+00    3.76670E+01
 1.60000E+00    3.36174E+01
 1.70000E+00    2.97692E+01
 1.80000E+00    2.62104E+01
 1.90000E+00    2.30034E+01
 2.00000E+00    2.00375E+01
 2.25000E+00    1.44820E+01
 2.50000E+00    9.92887E+00
 2.75000E+00    7.02928E+00
 3.00000E+00    5.10776E+00
 3.50000E+00    2.53935E+00
 4.00000E+00    1.30878E+00
 4.50000E+00    7.21165E-01
 5.00000E+00    4.40006E-01
 5.50000E+00    3.03289E-01
 6.00000E+00    2.33890E-01
 6.50000E+00    1.95740E-01
 7.00000E+00    1.72410E-01
 7.50000E+00    1.56307E-01
 8.00000E+00    1.43916E-01
 8.50000E+00    1.33635E-01
 9.00000E+00    1.24721E-01
 9.50000E+00    1.16803E-01
 1.00000E+01    1.09674E-01
 1.05000E+01    1.03250E-01
 1.10000E+01    9.73017E-02
 1.15000E+01    9.19296E-02
 1.20000E+01    8.69273E-02
 1.25000E+01    8.23843E-02
 1.30000E+01    7.81454E-02
 1.35000E+01    7.42770E-02
 1.40000E+01    7.06646E-02
 1.45000E+01    6.73507E-02
 1.50000E+01    6.42550E-02
 1.55000E+01    6.13981E-02
 1.60000E+01    5.87350E-02
 1.65000E+01    5.62463E-02
 1.70000E+01    5.39077E-02
 1.75000E+01    5.17071E-02
 1.80000E+01    4.96478E-02
 1.85000E+01    4.76896E-02
 1.90000E+01    4.58678E-02
 1.95000E+01    4.41146E-02
 2.00000E+01    4.24570E-02
