# n + Hf180 : (n,xn)    
# jendl4.0   K. Shibata (JAEA)                 EVAL-JUL09
# 
# # energies =    81
#   E(MeV)        xs(mb) 
 9.38491E-02    0.00000E+00
 1.00000E-01    1.45000E+02
 2.00000E-01    8.33600E+02
 3.00000E-01    1.32500E+03
 3.10312E-01    1.35934E+03
 4.00000E-01    1.68295E+03
 5.00000E-01    1.95507E+03
 6.00000E-01    2.16480E+03
 6.44451E-01    2.23388E+03
 7.00000E-01    2.32023E+03
 8.00000E-01    2.43469E+03
 9.00000E-01    2.51865E+03
 1.00000E+00    2.57389E+03
 1.09001E+00    2.45257E+03
 1.10818E+00    2.42808E+03
 1.11381E+00    2.42454E+03
 1.14788E+00    2.45375E+03
 1.17060E+00    2.47324E+03
 1.19003E+00    2.50263E+03
 1.19929E+00    2.53791E+03
 1.20642E+00    2.56702E+03
 1.25000E+00    2.86233E+03
 1.26774E+00    2.83259E+03
 1.29825E+00    2.80349E+03
 1.30764E+00    2.79917E+03
 1.32318E+00    2.80355E+03
 1.36169E+00    2.82747E+03
 1.37730E+00    2.84462E+03
 1.38203E+00    2.85058E+03
 1.38930E+00    2.86329E+03
 1.41714E+00    2.91630E+03
 1.41730E+00    2.91663E+03
 1.42907E+00    2.95181E+03
 1.43779E+00    2.98318E+03
 1.45209E+00    3.04352E+03
 1.48051E+00    3.16413E+03
 1.49095E+00    3.20845E+03
 1.49274E+00    3.21844E+03
 1.50000E+00    3.27137E+03
 1.51645E+00    3.25610E+03
 1.53355E+00    3.24085E+03
 1.54788E+00    3.22918E+03
 1.56573E+00    3.21616E+03
 1.56800E+00    3.21458E+03
 1.60646E+00    3.19561E+03
 1.61665E+00    3.19135E+03
 1.61837E+00    3.19075E+03
 1.62210E+00    3.18979E+03
 1.63974E+00    3.18654E+03
 1.64266E+00    3.18600E+03
 1.64608E+00    3.18587E+03
 1.66025E+00    3.18822E+03
 1.67031E+00    3.19138E+03
 2.00000E+00    3.52556E+03
 2.50000E+00    3.41693E+03
 3.00000E+00    3.30959E+03
 3.50000E+00    3.22609E+03
 4.00000E+00    3.16483E+03
 4.50000E+00    3.12969E+03
 5.00000E+00    3.10862E+03
 5.50000E+00    3.08733E+03
 6.00000E+00    3.06101E+03
 6.50000E+00    3.02842E+03
 7.00000E+00    2.99288E+03
 7.50000E+00    2.95887E+03
 8.00000E+00    3.29123E+03
 8.50000E+00    3.96857E+03
 9.00000E+00    4.39874E+03
 9.50000E+00    4.66642E+03
 1.00000E+01    4.79768E+03
 1.10000E+01    4.91299E+03
 1.20000E+01    4.94183E+03
 1.30000E+01    4.94383E+03
 1.40000E+01    4.93708E+03
 1.45000E+01    4.95701E+03
 1.50000E+01    5.04646E+03
 1.60000E+01    5.43652E+03
 1.70000E+01    5.86005E+03
 1.80000E+01    6.15472E+03
 1.90000E+01    6.33646E+03
 2.00000E+01    6.43779E+03
