# n + Hg204 : (n,xn)    
# jendl4.0   K.SHIBATA, T.FUKAHORI, S.CHIBA,+  EVAL-SEP97
# 
# # energies =   112
#   E(MeV)        xs(mb) 
 4.38659E-01    0.00000E+00
 4.38710E-01    2.02358E-01
 4.48790E-01    4.04665E+01
 4.58871E-01    7.98562E+01
 4.79032E-01    1.56147E+02
 5.19355E-01    2.99718E+02
 5.59677E-01    4.32762E+02
 6.00000E-01    5.56750E+02
 7.00000E-01    6.80343E+02
 8.00000E-01    7.88305E+02
 1.00000E+00    9.06661E+02
 1.13388E+00    9.42385E+02
 1.13390E+00    9.42405E+02
 1.16292E+00    9.70841E+02
 1.19195E+00    9.98779E+02
 1.25000E+00    1.05322E+03
 1.37500E+00    1.13804E+03
 1.50000E+00    1.21648E+03
 1.75000E+00    1.26495E+03
 1.83764E+00    1.27795E+03
 1.85051E+00    1.28712E+03
 1.86045E+00    1.29988E+03
 1.91882E+00    1.42259E+03
 1.95733E+00    1.50069E+03
 1.99884E+00    1.62599E+03
 2.00000E+00    1.63533E+03
 2.09913E+00    1.67819E+03
 2.12500E+00    1.69501E+03
 2.15139E+00    1.71076E+03
 2.20163E+00    1.75148E+03
 2.20190E+00    1.75172E+03
 2.25000E+00    1.79372E+03
 2.27399E+00    1.81269E+03
 2.27420E+00    1.81289E+03
 2.27642E+00    1.81497E+03
 2.31178E+00    1.84813E+03
 2.31210E+00    1.84848E+03
 2.33065E+00    1.86857E+03
 2.35095E+00    1.89050E+03
 2.37500E+00    1.91640E+03
 2.38710E+00    1.92885E+03
 2.40605E+00    1.94823E+03
 2.40795E+00    1.95017E+03
 2.50000E+00    2.07787E+03
 2.68860E+00    2.02579E+03
 2.69225E+00    2.02488E+03
 2.73757E+00    2.02308E+03
 2.74018E+00    2.02328E+03
 2.75000E+00    2.02586E+03
 2.76918E+00    2.03045E+03
 2.77395E+00    2.03153E+03
 2.82670E+00    2.05386E+03
 2.82671E+00    2.05387E+03
 2.82691E+00    2.05398E+03
 2.84612E+00    2.08368E+03
 2.91335E+00    2.18478E+03
 3.00000E+00    2.31259E+03
 3.06250E+00    2.33527E+03
 3.12500E+00    2.35570E+03
 3.18750E+00    2.37398E+03
 3.25000E+00    2.39018E+03
 3.37500E+00    2.42351E+03
 3.50000E+00    2.44945E+03
 3.62500E+00    2.48534E+03
 3.75000E+00    2.51481E+03
 3.87500E+00    2.54418E+03
 4.00000E+00    2.56982E+03
 4.25000E+00    2.56765E+03
 4.50000E+00    2.56294E+03
 4.75000E+00    2.56126E+03
 5.00000E+00    2.55755E+03
 5.50000E+00    2.48516E+03
 6.00000E+00    2.41758E+03
 6.50000E+00    2.36978E+03
 7.00000E+00    2.32394E+03
 7.50000E+00    2.28111E+03
 8.00000E+00    2.47465E+03
 8.25000E+00    2.62436E+03
 8.50000E+00    2.77909E+03
 8.75000E+00    2.93854E+03
 9.00000E+00    3.10245E+03
 9.25000E+00    3.27058E+03
 9.50000E+00    3.44269E+03
 9.75000E+00    3.61858E+03
 9.87500E+00    3.70789E+03
 1.00000E+01    3.79807E+03
 1.02500E+01    3.85650E+03
 1.05000E+01    3.91659E+03
 1.07500E+01    3.97825E+03
 1.10000E+01    4.04142E+03
 1.12500E+01    4.10602E+03
 1.15000E+01    4.17200E+03
 1.17500E+01    4.23929E+03
 1.20000E+01    4.30783E+03
 1.25000E+01    4.37760E+03
 1.30000E+01    4.44871E+03
 1.35000E+01    4.52105E+03
 1.37500E+01    4.55970E+03
 1.40000E+01    4.59914E+03
 1.45000E+01    4.70185E+03
 1.50000E+01    4.80496E+03
 1.55000E+01    4.90844E+03
 1.60000E+01    5.01227E+03
 1.65000E+01    5.20621E+03
 1.70000E+01    5.39990E+03
 1.75000E+01    5.59333E+03
 1.80000E+01    5.78653E+03
 1.82500E+01    5.87969E+03
 1.85000E+01    5.97259E+03
 1.90000E+01    6.15761E+03
 1.95000E+01    6.34163E+03
 2.00000E+01    6.52471E+03
