# n + Xe134 : (n,xa)    
# jendl4.0   S.Kunieda, A.Ichihara, K.Shibata+ EVAL-FEB22
# 
# # energies =    52
#   E(MeV)        xs(mb) 
 8.53422E-01    9.83509E-12
 9.00000E-01    9.31900E-12
 9.50000E-01    1.07500E-11
 1.00000E+00    1.31100E-11
 1.20000E+00    4.14800E-11
 1.40000E+00    1.54900E-10
 1.60000E+00    5.82300E-10
 1.62593E+00    7.29910E-10
 1.74420E+00    1.40330E-09
 1.80000E+00    1.72100E-09
 1.93406E+00    4.01208E-09
 1.98030E+00    4.80241E-09
 2.00000E+00    5.13900E-09
 2.15270E+00    1.29811E-08
 2.20000E+00    1.54100E-08
 2.28912E+00    2.81636E-08
 2.31959E+00    3.25236E-08
 2.37069E+00    3.98363E-08
 2.40000E+00    4.40300E-08
 2.42664E+00    5.38968E-08
 2.43672E+00    5.76285E-08
 2.60000E+00    1.18100E-07
 2.80000E+00    2.92000E-07
 3.00000E+00    6.79300E-07
 3.25000E+00    1.76100E-06
 3.50000E+00    4.38200E-06
 3.75000E+00    9.70700E-06
 4.00000E+00    2.06900E-05
 4.25000E+00    4.05700E-05
 4.50000E+00    7.58900E-05
 4.75000E+00    1.34400E-04
 5.00000E+00    2.25400E-04
 5.50000E+00    5.66100E-04
 6.00000E+00    1.23700E-03
 6.50000E+00    2.42100E-03
 7.00000E+00    4.33400E-03
 7.50000E+00    7.20900E-03
 8.00000E+00    1.12701E-02
 8.50000E+00    1.67108E-02
 9.00000E+00    2.37642E-02
 9.50000E+00    3.28280E-02
 1.00000E+01    4.43955E-02
 1.10000E+01    7.84497E-02
 1.20000E+01    1.36211E-01
 1.30000E+01    2.42320E-01
 1.40000E+01    4.39650E-01
 1.50000E+01    7.78000E-01
 1.60000E+01    1.31170E+00
 1.70000E+01    2.09880E+00
 1.80000E+01    3.20200E+00
 1.90000E+01    4.69900E+00
 2.00000E+01    6.67800E+00
