# n + In113 : (n,xp)    
# jendl.ad   kunieda                           EVAL-Mar14
# 
# # energies =    75
#   E(MeV)        xs(mb) 
 1.50000E-01    0.00000E+00
 2.00000E-01    0.00000E+00
 3.00000E-01    0.00000E+00
 3.95190E-01    0.00000E+00
 4.00000E-01    0.00000E+00
 5.00000E-01    0.00000E+00
 6.00000E-01    2.23020E-10
 6.52538E-01    6.38310E-10
 7.00000E-01    1.21960E-09
 8.00000E-01    5.88740E-09
 9.00000E-01    3.81090E-08
 1.00000E+00    1.75160E-07
 1.03340E+00    2.78630E-07
 1.03891E+00    2.97650E-07
 1.07367E+00    4.66680E-07
 1.11624E+00    7.43440E-07
 1.14157E+00    9.83420E-07
 1.18358E+00    1.68212E-06
 1.20000E+00    1.95196E-06
 1.20171E+00    1.98297E-06
 1.35681E+00    8.93934E-06
 1.36307E+00    9.39793E-06
 1.39304E+00    1.29335E-05
 1.39305E+00    1.29344E-05
 1.40000E+00    1.35575E-05
 1.46598E+00    2.19038E-05
 1.48492E+00    2.82844E-05
 1.50971E+00    3.33039E-05
 1.51744E+00    3.50589E-05
 1.52288E+00    3.63437E-05
 1.54982E+00    4.30994E-05
 1.56586E+00    4.77734E-05
 1.56587E+00    4.77800E-05
 1.58100E+00    5.98448E-05
 1.60000E+00    6.64562E-05
 1.80000E+00    2.27181E-04
 2.00000E+00    6.06623E-04
 2.20000E+00    1.42553E-03
 2.40000E+00    3.02691E-03
 2.70000E+00    7.98954E-03
 3.00000E+00    1.78586E-02
 3.50000E+00    5.31408E-02
 4.00000E+00    1.25109E-01
 4.50000E+00    2.38446E-01
 5.00000E+00    3.90690E-01
 5.50000E+00    5.39397E-01
 6.00000E+00    7.31895E-01
 6.50000E+00    8.98202E-01
 7.00000E+00    1.11865E+00
 7.50000E+00    1.37390E+00
 8.00000E+00    1.76150E+00
 8.50000E+00    2.29830E+00
 9.00000E+00    3.05012E+00
 9.50000E+00    4.10225E+00
 1.00000E+01    5.44890E+00
 1.05000E+01    7.07509E+00
 1.10000E+01    8.98136E+00
 1.15000E+01    1.11668E+01
 1.20000E+01    1.36442E+01
 1.25000E+01    1.63870E+01
 1.30000E+01    1.94694E+01
 1.35000E+01    2.28747E+01
 1.40000E+01    2.64830E+01
 1.45000E+01    3.02989E+01
 1.50000E+01    3.43177E+01
 1.55000E+01    3.84924E+01
 1.60000E+01    4.27797E+01
 1.65000E+01    4.71474E+01
 1.70000E+01    5.15817E+01
 1.75000E+01    5.61295E+01
 1.80000E+01    6.05396E+01
 1.85000E+01    6.52312E+01
 1.90000E+01    7.00269E+01
 1.95000E+01    7.47631E+01
 2.00000E+01    7.97336E+01
