# n + In113 : (n,xn)    
# jendl.ad   kunieda                           EVAL-Mar14
# 
# # energies =    75
#   E(MeV)        xs(mb) 
 1.50000E-01    0.00000E+00
 2.00000E-01    7.84227E-03
 3.00000E-01    5.35841E-02
 3.95190E-01    1.79644E-01
 4.00000E-01    7.09054E-01
 5.00000E-01    5.20384E+00
 6.00000E-01    9.02505E+00
 6.52538E-01    1.16889E+01
 7.00000E-01    2.43074E+01
 8.00000E-01    4.06059E+01
 9.00000E-01    5.49970E+01
 1.00000E+00    7.00873E+01
 1.03340E+00    7.62052E+01
 1.03891E+00    8.00878E+01
 1.07367E+00    1.15035E+02
 1.11624E+00    1.56072E+02
 1.14157E+00    1.84304E+02
 1.18358E+00    2.33130E+02
 1.20000E+00    2.84736E+02
 1.20171E+00    2.89650E+02
 1.35681E+00    6.29477E+02
 1.36307E+00    6.45302E+02
 1.39304E+00    7.33080E+02
 1.39305E+00    7.33103E+02
 1.40000E+00    7.51186E+02
 1.46598E+00    8.81608E+02
 1.48492E+00    9.12651E+02
 1.50971E+00    9.48673E+02
 1.51744E+00    9.59739E+02
 1.52288E+00    9.67531E+02
 1.54982E+00    1.01171E+03
 1.56586E+00    1.03476E+03
 1.56587E+00    1.03477E+03
 1.58100E+00    1.05688E+03
 1.60000E+00    1.08379E+03
 1.80000E+00    1.36948E+03
 2.00000E+00    1.56059E+03
 2.20000E+00    1.66124E+03
 2.40000E+00    1.71502E+03
 2.70000E+00    1.75661E+03
 3.00000E+00    1.78292E+03
 3.50000E+00    1.82879E+03
 4.00000E+00    1.89380E+03
 4.50000E+00    1.96906E+03
 5.00000E+00    2.03201E+03
 5.50000E+00    2.06839E+03
 6.00000E+00    2.07608E+03
 6.50000E+00    2.06371E+03
 7.00000E+00    2.04063E+03
 7.50000E+00    2.01460E+03
 8.00000E+00    1.99036E+03
 8.50000E+00    1.97094E+03
 9.00000E+00    1.95721E+03
 9.50000E+00    1.94894E+03
 1.00000E+01    1.99883E+03
 1.05000E+01    2.22400E+03
 1.10000E+01    2.51390E+03
 1.15000E+01    2.78653E+03
 1.20000E+01    3.01526E+03
 1.25000E+01    3.18049E+03
 1.30000E+01    3.28039E+03
 1.35000E+01    3.36669E+03
 1.40000E+01    3.42214E+03
 1.45000E+01    3.45474E+03
 1.50000E+01    3.47673E+03
 1.55000E+01    3.48899E+03
 1.60000E+01    3.49165E+03
 1.65000E+01    3.48740E+03
 1.70000E+01    3.47817E+03
 1.75000E+01    3.46782E+03
 1.80000E+01    3.45457E+03
 1.85000E+01    3.46917E+03
 1.90000E+01    3.48710E+03
 1.95000E+01    3.52489E+03
 2.00000E+01    3.57765E+03
