# n + Pu238 : (n,xn)    
# jendl4.0   O.Iwamoto,T.Nakagawa +            EVAL-JAN10
# 
# # energies =    82
#   E(MeV)        xs(mb) 
 4.42628E-02    0.00000E+00
 5.00000E-02    3.11889E+01
 7.00000E-02    1.75230E+02
 1.00000E-01    3.64160E+02
 1.15000E-01    4.26724E+02
 1.30000E-01    4.89295E+02
 1.46570E-01    5.47795E+02
 1.70000E-01    6.18283E+02
 2.00000E-01    7.05745E+02
 3.00000E-01    8.45202E+02
 3.04665E-01    8.46210E+02
 3.04666E-01    8.46211E+02
 4.00000E-01    8.66078E+02
 5.00000E-01    9.09601E+02
 5.15756E-01    9.08154E+02
 6.00000E-01    9.00898E+02
 6.07704E-01    9.00733E+02
 6.64202E-01    9.77960E+02
 7.00000E-01    1.01752E+03
 7.66474E-01    1.05267E+03
 7.76757E-01    1.05621E+03
 8.00000E-01    1.06356E+03
 9.00000E-01    1.08074E+03
 9.45449E-01    1.08202E+03
 9.66859E-01    1.08980E+03
 9.66860E-01    1.08980E+03
 9.72302E-01    1.09767E+03
 9.87256E-01    1.11556E+03
 9.89626E-01    1.12003E+03
 1.00000E+00    1.13869E+03
 1.02292E+00    1.16720E+03
 1.03290E+00    1.18088E+03
 1.07448E+00    1.23807E+03
 1.08468E+00    1.25163E+03
 1.08715E+00    1.25461E+03
 1.13053E+00    1.30201E+03
 1.13880E+00    1.30969E+03
 1.17938E+00    1.34677E+03
 1.20756E+00    1.37064E+03
 1.23386E+00    1.39224E+03
 1.25730E+00    1.40960E+03
 1.30000E+00    1.43002E+03
 1.60000E+00    1.48845E+03
 1.80000E+00    1.50221E+03
 2.00000E+00    1.50914E+03
 2.30000E+00    1.50952E+03
 2.50000E+00    1.50420E+03
 2.70000E+00    1.49720E+03
 3.00000E+00    1.52343E+03
 3.50000E+00    1.51737E+03
 4.00000E+00    1.53940E+03
 4.50000E+00    1.58792E+03
 5.00000E+00    1.63763E+03
 5.50000E+00    1.56377E+03
 6.00000E+00    1.31073E+03
 6.50000E+00    1.04967E+03
 7.00000E+00    8.67855E+02
 7.50000E+00    7.53002E+02
 8.00000E+00    7.14378E+02
 8.50000E+00    7.02289E+02
 9.00000E+00    6.93317E+02
 9.50000E+00    6.89543E+02
 1.00000E+01    7.10032E+02
 1.05000E+01    7.11984E+02
 1.10000E+01    7.38132E+02
 1.15000E+01    7.72589E+02
 1.20000E+01    8.06841E+02
 1.25000E+01    8.47682E+02
 1.30000E+01    8.88956E+02
 1.35000E+01    9.23050E+02
 1.40000E+01    9.27359E+02
 1.45000E+01    9.12666E+02
 1.50000E+01    8.81538E+02
 1.55000E+01    8.46005E+02
 1.60000E+01    8.16284E+02
 1.65000E+01    7.83511E+02
 1.70000E+01    7.50073E+02
 1.75000E+01    7.27529E+02
 1.80000E+01    7.11305E+02
 1.85000E+01    7.01107E+02
 1.95000E+01    7.04562E+02
 2.00000E+01    7.12898E+02
