# n + Kr 78 : (n,xp)    
# endfb8.0   T. Kawano                         EVAL-Oct16
# 
# # energies =    78
#   E(MeV)        xs(mb) 
 4.60930E-01    9.79027E-11
 5.00000E-01    2.87180E-10
 6.00000E-01    9.96200E-09
 7.00000E-01    1.70090E-07
 8.00000E-01    1.74727E-06
 9.00000E-01    1.24060E-05
 1.00000E+00    6.67842E-05
 1.03035E+00    1.29949E-04
 1.10000E+00    2.74925E-04
 1.13396E+00    4.96459E-04
 1.16278E+00    6.84451E-04
 1.20000E+00    9.27244E-04
 1.30000E+00    2.75440E-03
 1.40000E+00    7.43636E-03
 1.50000E+00    1.84007E-02
 1.58502E+00    3.83748E-02
 1.60000E+00    4.18952E-02
 1.67531E+00    7.68520E-02
 1.70000E+00    8.83131E-02
 1.77859E+00    1.53205E-01
 1.79588E+00    1.67482E-01
 1.80000E+00    1.70884E-01
 1.89714E+00    3.01187E-01
 1.90000E+00    3.05018E-01
 2.00000E+00    5.31290E-01
 2.00342E+00    5.42971E-01
 2.03341E+00    6.45285E-01
 2.03442E+00    6.48742E-01
 2.10000E+00    8.72532E-01
 2.20000E+00    1.37413E+00
 2.30000E+00    2.07730E+00
 2.40000E+00    3.02738E+00
 2.50000E+00    4.27380E+00
 2.60000E+00    5.86813E+00
 2.70000E+00    7.86161E+00
 2.80000E+00    1.03014E+01
 2.90000E+00    1.32276E+01
 3.00000E+00    1.66689E+01
 3.10000E+00    2.06411E+01
 3.20000E+00    2.51445E+01
 3.30000E+00    3.01636E+01
 3.40000E+00    3.56676E+01
 3.50000E+00    4.16112E+01
 3.60000E+00    4.79386E+01
 3.80000E+00    6.14815E+01
 4.00000E+00    7.57402E+01
 4.50000E+00    1.11204E+02
 5.00000E+00    1.35375E+02
 5.50000E+00    1.59640E+02
 6.00000E+00    1.77783E+02
 6.50000E+00    1.90104E+02
 7.00000E+00    1.97405E+02
 7.50000E+00    2.00910E+02
 8.00000E+00    2.01019E+02
 8.50000E+00    1.98984E+02
 9.00000E+00    1.95711E+02
 9.50000E+00    1.91853E+02
 1.00000E+01    1.88172E+02
 1.05000E+01    1.86442E+02
 1.10000E+01    1.98043E+02
 1.15000E+01    2.54212E+02
 1.20000E+01    3.72399E+02
 1.25000E+01    5.27323E+02
 1.30000E+01    6.49075E+02
 1.35000E+01    7.13811E+02
 1.40000E+01    7.40749E+02
 1.45000E+01    7.50010E+02
 1.50000E+01    7.50335E+02
 1.55000E+01    7.45252E+02
 1.60000E+01    7.37347E+02
 1.65000E+01    7.36274E+02
 1.70000E+01    7.28781E+02
 1.75000E+01    7.22138E+02
 1.80000E+01    7.16534E+02
 1.85000E+01    7.11803E+02
 1.90000E+01    7.07673E+02
 1.95000E+01    7.03727E+02
 2.00000E+01    6.99882E+02
