# n + Kr 78 : (n,xa)    
# endfb8.0   T. Kawano                         EVAL-Oct16
# 
# # energies =    78
#   E(MeV)        xs(mb) 
 4.60930E-01    1.21912E-05
 5.00000E-01    1.17547E-05
 6.00000E-01    1.74829E-05
 7.00000E-01    2.88075E-05
 8.00000E-01    4.89787E-05
 9.00000E-01    8.42889E-05
 1.00000E+00    1.45508E-04
 1.03035E+00    1.75920E-04
 1.10000E+00    2.45722E-04
 1.13396E+00    2.86008E-04
 1.16278E+00    3.20195E-04
 1.20000E+00    3.64347E-04
 1.30000E+00    5.35404E-04
 1.40000E+00    8.21151E-04
 1.50000E+00    1.27976E-03
 1.58502E+00    1.88184E-03
 1.60000E+00    1.98796E-03
 1.67531E+00    2.76177E-03
 1.70000E+00    3.01548E-03
 1.77859E+00    4.14527E-03
 1.79588E+00    4.39384E-03
 1.80000E+00    4.45307E-03
 1.89714E+00    6.32963E-03
 1.90000E+00    6.38480E-03
 2.00000E+00    9.15101E-03
 2.00342E+00    9.28048E-03
 2.03341E+00    1.04145E-02
 2.03442E+00    1.04528E-02
 2.10000E+00    1.29333E-02
 2.20000E+00    1.79956E-02
 2.30000E+00    2.46796E-02
 2.40000E+00    3.33833E-02
 2.50000E+00    4.45684E-02
 2.60000E+00    5.87265E-02
 2.70000E+00    7.64296E-02
 2.80000E+00    9.82717E-02
 2.90000E+00    1.24864E-01
 3.00000E+00    1.56870E-01
 3.10000E+00    1.94942E-01
 3.20000E+00    2.39773E-01
 3.30000E+00    2.92060E-01
 3.40000E+00    3.52522E-01
 3.50000E+00    4.21904E-01
 3.60000E+00    5.00986E-01
 3.80000E+00    6.91484E-01
 4.00000E+00    9.38530E-01
 4.50000E+00    1.98791E+00
 5.00000E+00    3.99328E+00
 5.50000E+00    7.36441E+00
 6.00000E+00    1.18788E+01
 6.50000E+00    1.73064E+01
 7.00000E+00    2.27327E+01
 7.50000E+00    2.74014E+01
 8.00000E+00    3.07206E+01
 8.50000E+00    3.26699E+01
 9.00000E+00    3.35315E+01
 9.50000E+00    3.37109E+01
 1.00000E+01    3.36084E+01
 1.05000E+01    3.35574E+01
 1.10000E+01    3.38037E+01
 1.15000E+01    3.45513E+01
 1.20000E+01    3.58676E+01
 1.25000E+01    3.76710E+01
 1.30000E+01    3.98180E+01
 1.35000E+01    4.21521E+01
 1.40000E+01    4.46299E+01
 1.45000E+01    4.76034E+01
 1.50000E+01    5.10131E+01
 1.55000E+01    5.48641E+01
 1.60000E+01    5.91569E+01
 1.65000E+01    6.40720E+01
 1.70000E+01    6.92711E+01
 1.75000E+01    7.48030E+01
 1.80000E+01    8.05954E+01
 1.85000E+01    8.64917E+01
 1.90000E+01    9.24102E+01
 1.95000E+01    9.82124E+01
 2.00000E+01    1.03763E+02
