# n + Fe 56 : (n,p)     
# jendl4.0   S.IIJIMA,H.YAMAKOSHI              EVAL-MAR87
# uncertainties: y
# # energies =    37
#   E(MeV)       xs(mb)       xslow(mb)      xsupp(mb)
 3.50000E+00    0.00000E+00    0.00000E+00    0.00000E+00
 4.00000E+00    6.20000E-03    3.36040E-03    9.03960E-03
 4.20000E+00    2.25000E-02    1.21950E-02    3.28050E-02
 4.30000E+00    4.50000E-02    2.43900E-02    6.56100E-02
 4.40000E+00    6.80000E-02    3.68560E-02    9.91440E-02
 4.50000E+00    1.38000E-01    1.27512E-01    1.48488E-01
 4.60000E+00    2.00000E-01    1.84800E-01    2.15200E-01
 4.70000E+00    3.65000E-01    3.37260E-01    3.92740E-01
 4.80000E+00    5.70000E-01    5.26680E-01    6.13320E-01
 4.90000E+00    7.50000E-01    6.93000E-01    8.07000E-01
 5.00000E+00    9.50000E-01    8.77800E-01    1.02220E+00
 5.20000E+00    1.80000E+00    1.66320E+00    1.93680E+00
 5.40000E+00    3.35000E+00    3.09540E+00    3.60460E+00
 5.50000E+00    4.70000E+00    4.46406E+00    4.93594E+00
 5.75000E+00    8.50000E+00    8.07330E+00    8.92670E+00
 6.00000E+00    1.23000E+01    1.16825E+01    1.29175E+01
 6.50000E+00    2.00000E+01    1.89600E+01    2.10400E+01
 7.00000E+00    2.80000E+01    2.65440E+01    2.94560E+01
 7.50000E+00    3.65000E+01    3.44779E+01    3.85221E+01
 8.00000E+00    4.50000E+01    4.25070E+01    4.74930E+01
 8.50000E+00    5.35000E+01    5.03221E+01    5.66779E+01
 9.00000E+00    6.20000E+01    5.83172E+01    6.56828E+01
 9.50000E+00    6.80000E+01    6.39744E+01    7.20256E+01
 1.00000E+01    7.40000E+01    6.96192E+01    7.83808E+01
 1.10000E+01    9.00000E+01    8.46360E+01    9.53640E+01
 1.20000E+01    1.02000E+02    9.58086E+01    1.08191E+02
 1.30000E+01    1.13000E+02    1.06853E+02    1.19147E+02
 1.35000E+01    1.18000E+02    1.12419E+02    1.23581E+02
 1.40000E+01    1.14000E+02    1.08608E+02    1.19392E+02
 1.45000E+01    1.09000E+02    1.03812E+02    1.14188E+02
 1.50000E+01    1.04000E+02    9.90496E+01    1.08950E+02
 1.55000E+01    9.50000E+01    8.88250E+01    1.01175E+02
 1.60000E+01    8.50000E+01    7.94750E+01    9.05250E+01
 1.70000E+01    7.00000E+01    6.65560E+01    7.34440E+01
 1.80000E+01    5.70000E+01    5.41158E+01    5.98842E+01
 1.90000E+01    5.30000E+01    5.00055E+01    5.59945E+01
 2.00000E+01    4.50000E+01    4.18905E+01    4.81095E+01
