# n + Cr  0 : (n,n'01)
# jendl4.0   N.Iwamoto                         EVAL-Dec09
# uncertainties: n
# # energies =    91
#   E(MeV)          xs(mb) 
 7.99119E-01    1.89264E+01
 8.00000E-01    2.66173E+01
 9.00000E-01    6.14046E+01
 1.00000E+00    6.99460E+01
 1.10000E+00    7.37864E+01
 1.20000E+00    7.92532E+01
 1.30000E+00    8.44516E+01
 1.40000E+00    8.80033E+01
 1.50000E+00    3.00368E+02
 1.60000E+00    4.20102E+02
 1.70000E+00    5.11143E+02
 1.80000E+00    4.52198E+02
 1.90000E+00    5.96143E+02
 1.91928E+00    5.90586E+02
 2.00000E+00    7.00710E+02
 2.25000E+00    8.60497E+02
 2.50000E+00    7.52577E+02
 2.75000E+00    8.40460E+02
 2.98356E+00    6.40192E+02
 3.00000E+00    6.88379E+02
 3.22494E+00    6.41852E+02
 3.22758E+00    6.45413E+02
 3.39171E+00    5.43360E+02
 3.50000E+00    5.82299E+02
 3.66714E+00    5.14439E+02
 3.67474E+00    5.18575E+02
 3.68423E+00    5.23516E+02
 3.70280E+00    5.27995E+02
 3.76656E+00    4.36185E+02
 3.76860E+00    4.35460E+02
 3.77238E+00    4.34043E+02
 3.86889E+00    4.78764E+02
 3.90265E+00    5.11922E+02
 3.90429E+00    5.13531E+02
 3.92194E+00    5.02568E+02
 3.92775E+00    4.97787E+02
 3.95315E+00    4.76717E+02
 3.97397E+00    4.46168E+02
 3.97672E+00    4.41458E+02
 4.00000E+00    4.02775E+02
 4.01722E+00    3.96066E+02
 4.12159E+00    4.05996E+02
 4.13352E+00    3.92787E+02
 4.15260E+00    3.71538E+02
 4.21310E+00    3.49355E+02
 4.27758E+00    3.36709E+02
 4.29196E+00    3.33807E+02
 4.36848E+00    3.19035E+02
 4.43785E+00    3.05724E+02
 4.45111E+00    3.03199E+02
 4.50000E+00    2.93980E+02
 4.61526E+00    2.77251E+02
 4.63801E+00    2.73962E+02
 4.74748E+00    2.58069E+02
 4.77043E+00    2.54774E+02
 4.82348E+00    2.47110E+02
 4.83572E+00    2.45328E+02
 4.84083E+00    2.44588E+02
 4.86837E+00    2.40649E+02
 4.89796E+00    2.36391E+02
 5.00000E+00    2.21833E+02
 5.50000E+00    1.75479E+02
 6.00000E+00    1.43906E+02
 6.50000E+00    1.22107E+02
 7.00000E+00    1.06472E+02
 7.50000E+00    9.47692E+01
 8.00000E+00    8.55941E+01
 8.50000E+00    7.83842E+01
 9.00000E+00    7.21075E+01
 9.50000E+00    6.68870E+01
 1.00000E+01    6.25270E+01
 1.05000E+01    5.88970E+01
 1.10000E+01    5.58737E+01
 1.15000E+01    5.33400E+01
 1.20000E+01    5.11738E+01
 1.25000E+01    4.92883E+01
 1.30000E+01    4.76194E+01
 1.35000E+01    4.60864E+01
 1.40000E+01    4.46562E+01
 1.45000E+01    4.33268E+01
 1.50000E+01    4.20608E+01
 1.55000E+01    4.08568E+01
 1.60000E+01    3.97158E+01
 1.65000E+01    3.86385E+01
 1.70000E+01    3.76261E+01
 1.75000E+01    3.66793E+01
 1.80000E+01    3.58143E+01
 1.85000E+01    3.50204E+01
 1.90000E+01    3.42921E+01
 1.95000E+01    3.36344E+01
 2.00000E+01    3.30359E+01
