# n + Es252 : (n,xn)    
# endfb8.0   O.Iwamoto, T.Nakagawa, et al.     EVAL-FEB10
# 
# # energies =    71
#   E(MeV)        xs(mb) 
 6.02401E-02    0.00000E+00
 7.00000E-02    1.95687E+01
 9.23681E-02    4.29206E+01
 1.00000E-01    5.16079E+01
 1.10882E-01    6.44442E+01
 1.20000E-01    7.52001E+01
 1.30520E-01    8.74865E+01
 1.40000E-01    1.00526E+02
 1.57628E-01    1.25801E+02
 1.70000E-01    1.51999E+02
 2.00000E-01    2.05506E+02
 2.10840E-01    2.20760E+02
 2.34936E-01    2.53507E+02
 2.50000E-01    2.73735E+02
 3.00000E-01    3.28190E+02
 4.00000E-01    4.43910E+02
 5.00000E-01    6.31849E+02
 6.00000E-01    8.07547E+02
 7.00000E-01    9.79152E+02
 8.00000E-01    1.12419E+03
 9.00000E-01    1.26003E+03
 1.00000E+00    1.39487E+03
 1.10000E+00    1.51507E+03
 1.20000E+00    1.62572E+03
 1.30000E+00    1.72365E+03
 1.40000E+00    1.81288E+03
 1.50000E+00    1.88310E+03
 1.60000E+00    1.94372E+03
 1.70000E+00    1.98457E+03
 1.80000E+00    2.01628E+03
 1.90000E+00    2.03185E+03
 2.00000E+00    2.03982E+03
 2.10000E+00    2.03769E+03
 2.30000E+00    2.01764E+03
 2.50000E+00    1.98408E+03
 2.70000E+00    1.94530E+03
 3.00000E+00    1.88973E+03
 3.50000E+00    1.80959E+03
 4.00000E+00    1.75364E+03
 4.50000E+00    1.71938E+03
 5.00000E+00    1.70121E+03
 5.50000E+00    1.70806E+03
 6.00000E+00    1.93151E+03
 6.50000E+00    2.07394E+03
 7.00000E+00    2.05252E+03
 7.50000E+00    1.97008E+03
 8.00000E+00    1.85673E+03
 8.50000E+00    1.73305E+03
 9.00000E+00    1.61477E+03
 9.50000E+00    1.51531E+03
 1.00000E+01    1.43925E+03
 1.05000E+01    1.38610E+03
 1.10000E+01    1.34314E+03
 1.15000E+01    1.30336E+03
 1.20000E+01    1.24297E+03
 1.25000E+01    1.15640E+03
 1.30000E+01    1.05523E+03
 1.35000E+01    9.52635E+02
 1.40000E+01    8.71492E+02
 1.45000E+01    8.05108E+02
 1.50000E+01    7.59174E+02
 1.55000E+01    7.24602E+02
 1.60000E+01    7.04903E+02
 1.65000E+01    6.89146E+02
 1.70000E+01    6.77064E+02
 1.75000E+01    6.68038E+02
 1.80000E+01    6.59479E+02
 1.85000E+01    6.51655E+02
 1.90000E+01    6.44091E+02
 1.95000E+01    6.26865E+02
 2.00000E+01    6.15858E+02
