# n + Mn 55 : (n,xp)    
# jendl4.0   K.Shibata,T.Hojuyama              EVAL-MAR87
# 
# # energies =    55
#   E(MeV)        xs(mb) 
 1.28313E-01    0.00000E+00
 2.00000E-01    0.00000E+00
 5.00000E-01    0.00000E+00
 8.00000E-01    0.00000E+00
 1.00000E+00    0.00000E+00
 1.00207E+00    0.00000E+00
 1.25000E+00    0.00000E+00
 1.31368E+00    0.00000E+00
 1.31572E+00    0.00000E+00
 1.31674E+00    0.00000E+00
 1.50000E+00    0.00000E+00
 1.55605E+00    0.00000E+00
 1.75000E+00    0.00000E+00
 1.91859E+00    4.39419E-06
 2.00000E+00    9.98813E-06
 2.05200E+00    1.35612E-05
 2.23835E+00    2.63659E-05
 2.25000E+00    2.71664E-05
 2.25567E+00    2.75560E-05
 2.29335E+00    3.01451E-05
 2.30862E+00    3.11943E-05
 2.35445E+00    3.43435E-05
 2.40944E+00    3.81220E-05
 2.44203E+00    4.03613E-05
 2.47156E+00    4.23904E-05
 2.50000E+00    4.43446E-05
 2.75000E+00    6.15229E-05
 3.00000E+00    2.64180E-03
 3.10192E+00    1.42693E-02
 3.50000E+00    5.96840E-02
 4.00000E+00    3.84940E-01
 4.50000E+00    1.37790E+00
 5.00000E+00    1.94200E+00
 5.50000E+00    5.71970E+00
 6.00000E+00    8.22390E+00
 6.50000E+00    1.03580E+01
 7.00000E+00    1.18100E+01
 7.50000E+00    1.31040E+01
 8.00000E+00    1.44430E+01
 8.50000E+00    1.60150E+01
 9.00000E+00    1.80970E+01
 9.50000E+00    2.07828E+01
 1.00000E+01    2.43118E+01
 1.10000E+01    3.61696E+01
 1.20000E+01    4.84505E+01
 1.30000E+01    6.05556E+01
 1.40000E+01    7.39830E+01
 1.41000E+01    7.54738E+01
 1.45000E+01    8.14370E+01
 1.50000E+01    8.92600E+01
 1.60000E+01    1.05962E+02
 1.70000E+01    1.23616E+02
 1.80000E+01    1.41845E+02
 1.90000E+01    1.59777E+02
 2.00000E+01    1.76619E+02
