# n + Sm154 : (n,xa)    
# jendl4.0   N.Iwamoto                         EVAL-Nov09
# 
# # energies =   112
#   E(MeV)        xs(mb) 
 8.25132E-02    3.58630E-14
 9.00000E-02    2.67490E-14
 1.00000E-01    2.54440E-14
 1.05000E-01    2.52270E-14
 1.10000E-01    2.50100E-14
 1.20000E-01    2.51120E-14
 1.30000E-01    2.56190E-14
 1.40000E-01    2.64240E-14
 1.50000E-01    2.74990E-14
 1.60000E-01    2.88670E-14
 1.70000E-01    3.04640E-14
 1.80000E-01    3.22680E-14
 1.90000E-01    3.43560E-14
 2.00000E-01    3.67100E-14
 2.25000E-01    4.37340E-14
 2.50000E-01    5.27100E-14
 2.68538E-01    6.13037E-14
 2.75000E-01    6.43410E-14
 3.00000E-01    7.83020E-14
 4.00000E-01    1.76480E-13
 5.00000E-01    4.07240E-13
 5.47293E-01    6.04060E-13
 6.00000E-01    9.31410E-13
 7.00000E-01    2.09722E-12
 8.00000E-01    4.70280E-12
 9.00000E-01    1.02920E-11
 9.08555E-01    1.09980E-11
 9.27438E-01    1.27240E-11
 1.00000E+00    1.94930E-11
 1.01902E+00    2.22670E-11
 1.10000E+00    3.71210E-11
 1.10653E+00    3.87890E-11
 1.11123E+00    3.97031E-11
 1.11124E+00    3.97050E-11
 1.12734E+00    4.35180E-11
 1.18553E+00    6.20880E-11
 1.18839E+00    6.20550E-11
 1.20000E+00    6.55800E-11
 1.21026E+00    6.93540E-11
 1.29479E+00    1.11770E-10
 1.30000E+00    1.13220E-10
 1.30349E+00    1.15149E-10
 1.34153E+00    1.36170E-10
 1.34641E+00    1.39680E-10
 1.37394E+00    1.61490E-10
 1.37998E+00    1.65790E-10
 1.40000E+00    1.83610E-10
 1.44038E+00    2.28540E-10
 1.44949E+00    2.40220E-10
 1.48178E+00    2.79900E-10
 1.48467E+00    2.83978E-10
 1.48538E+00    2.84980E-10
 1.50000E+00    3.02440E-10
 1.52512E+00    3.42910E-10
 1.54935E+00    3.83730E-10
 1.58694E+00    4.58910E-10
 1.59493E+00    4.77970E-10
 1.60000E+00    4.88990E-10
 1.62540E+00    5.55090E-10
 1.67279E+00    7.03946E-10
 1.67580E+00    7.13400E-10
 1.68480E+00    7.45130E-10
 1.70000E+00    8.00810E-10
 1.71799E+00    8.76188E-10
 1.71800E+00    8.76230E-10
 1.75241E+00    1.04240E-09
 1.76614E+00    1.11641E-09
 1.76740E+00    1.12320E-09
 1.77153E+00    1.14510E-09
 1.77596E+00    1.16860E-09
 1.78587E+00    1.22420E-09
 1.80000E+00    1.31190E-09
 1.90000E+00    2.11050E-09
 2.00000E+00    3.29140E-09
 2.25000E+00    9.72700E-09
 2.50000E+00    2.43380E-08
 2.75000E+00    6.07620E-08
 3.00000E+00    1.29340E-07
 3.50000E+00    5.33548E-07
 4.00000E+00    1.79235E-06
 4.50000E+00    4.93968E-06
 5.00000E+00    1.18154E-05
 5.50000E+00    2.51750E-05
 6.00000E+00    4.88816E-05
 6.50000E+00    8.83399E-05
 7.00000E+00    1.50192E-04
 7.50000E+00    2.52286E-04
 8.00000E+00    4.31739E-04
 8.50000E+00    7.75771E-04
 9.00000E+00    1.47027E-03
 9.50000E+00    2.89143E-03
 1.00000E+01    5.76562E-03
 1.05000E+01    1.14228E-02
 1.10000E+01    2.21934E-02
 1.15000E+01    4.18615E-02
 1.20000E+01    7.62851E-02
 1.25000E+01    1.33626E-01
 1.30000E+01    2.24344E-01
 1.35000E+01    3.60387E-01
 1.40000E+01    5.53800E-01
 1.45000E+01    8.15116E-01
 1.50000E+01    1.15207E+00
 1.55000E+01    1.56947E+00
 1.60000E+01    2.06526E+00
 1.65000E+01    2.64175E+00
 1.70000E+01    3.29133E+00
 1.75000E+01    4.00509E+00
 1.80000E+01    4.78017E+00
 1.85000E+01    5.60665E+00
 1.90000E+01    6.47415E+00
 1.95000E+01    7.37938E+00
 2.00000E+01    8.31016E+00
