# n + Fe 57 : (n,tot)   
# jendl.ad   S.IIJIMA,H.YAMAKOSHI              EVAL-MAR87
# uncertainties: n
# # energies =    69
#   E(MeV)       xs(mb) 
 1.00000E-10    1.71994E+04
 5.00000E-09    4.68312E+03
 1.00000E-08    3.54670E+03
 1.50000E-08    2.97990E+03
 2.00000E-08    2.62165E+03
 2.50000E-08    2.36848E+03
 3.00000E-08    2.17731E+03
 3.50000E-08    2.00188E+03
 4.20000E-08    1.83108E+03
 5.00000E-08    1.68889E+03
 5.80000E-08    1.56965E+03
 6.70000E-08    1.44863E+03
 8.00000E-08    1.31091E+03
 1.00000E-07    1.14046E+03
 1.40000E-07    9.84144E+02
 1.80000E-07    8.78826E+02
 2.20000E-07    8.09234E+02
 2.50000E-07    7.61843E+02
 2.80000E-07    7.27871E+02
 3.00000E-07    7.03920E+02
 3.20000E-07    6.77392E+02
 3.50000E-07    6.40806E+02
 4.00000E-07    5.86306E+02
 5.00000E-07    5.24512E+02
 6.25000E-07    4.69430E+02
 7.80000E-07    4.34470E+02
 8.50000E-07    4.17989E+02
 9.10000E-07    4.06472E+02
 9.50000E-07    3.99901E+02
 9.72000E-07    3.95154E+02
 9.96000E-07    3.90407E+02
 1.02000E-06    3.85955E+02
 1.04500E-06    3.81329E+02
 1.07100E-06    3.76613E+02
 1.09700E-06    3.71995E+02
 1.12300E-06    3.67781E+02
 1.15000E-06    3.54587E+02
 1.30000E-06    3.31820E+02
 1.50000E-06    2.94610E+02
 2.10000E-06    2.56602E+02
 2.60000E-06    2.29243E+02
 3.30000E-06    2.05787E+02
 4.00000E-06    1.57754E+02
 9.87700E-06    1.11012E+02
 1.59680E-05    8.59222E+01
 2.77000E-05    6.53406E+01
 4.80520E-05    5.09306E+01
 7.55014E-05    3.86977E+01
 1.48728E-04    2.65428E+01
 3.67262E-04    1.76625E+01
 9.06898E-04    1.37241E+01
 1.42510E-03    1.81608E+02
 2.23945E-03    1.93924E+01
 3.51910E-03    1.26127E+02
 5.53000E-03    2.23523E+02
 9.11800E-03    3.52864E+01
 1.50300E-02    1.95874E+01
 2.47800E-02    5.02965E+01
 4.08500E-02    2.27999E+01
 6.73400E-02    6.13063E+00
 1.11000E-01    3.32739E+00
 1.83000E-01    2.00915E+00
 3.02000E-01    1.53467E+00
 5.00000E-01    1.11744E+00
 8.21000E-01    8.29219E-01
 1.35300E+00    6.60122E-01
 2.23100E+00    5.62746E-01
 3.67900E+00    4.06600E-01
 6.06500E+00    1.05136E+02
