# n + Cd111 : (n,xp)    
# jendl4.0   S.Kunieda, A.Ichihara, K.Shibata+ EVAL-FEB22
# 
# # energies =    94
#   E(MeV)        xs(mb) 
 2.47622E-01    0.00000E+00
 2.50000E-01    0.00000E+00
 3.00000E-01    1.94700E-29
 3.45247E-01    1.41713E-24
 3.50000E-01    1.56600E-24
 3.99817E-01    7.21762E-22
 4.00000E-01    7.24400E-22
 4.20510E-01    2.08962E-20
 4.50000E-01    4.99000E-20
 5.00000E-01    1.28200E-18
 5.50000E-01    1.82000E-17
 6.00000E-01    1.73300E-16
 6.25821E-01    7.08663E-16
 6.50000E-01    1.21000E-15
 6.86669E-01    5.19664E-15
 7.00000E-01    6.64600E-15
 7.06366E-01    9.64889E-15
 7.11341E-01    1.19955E-14
 7.42694E-01    2.67839E-14
 7.50000E-01    3.02300E-14
 7.59657E-01    4.58487E-14
 7.61766E-01    4.92601E-14
 8.00000E-01    1.11100E-13
 8.38820E-01    3.10092E-13
 8.50000E-01    3.67400E-13
 8.61706E-01    5.30963E-13
 8.63382E-01    5.54368E-13
 8.72665E-01    6.84079E-13
 8.74482E-01    7.09458E-13
 9.00000E-01    1.06600E-12
 9.50000E-01    2.87400E-12
 9.76703E-01    5.33228E-12
 9.95502E-01    7.06295E-12
 1.00000E+00    7.47700E-12
 1.02601E+00    3.34740E-11
 1.02928E+00    3.67427E-11
 1.05628E+00    6.37353E-11
 1.06711E+00    7.45592E-11
 1.08806E+00    9.55001E-11
 1.12571E+00    1.33135E-10
 1.12858E+00    1.36009E-10
 1.14028E+00    1.47700E-10
 1.16147E+00    1.68883E-10
 1.19651E+00    2.03915E-10
 1.20000E+00    2.07400E-10
 1.20078E+00    2.20110E-10
 1.26802E+00    1.31155E-09
 1.28627E+00    1.60787E-09
 1.30061E+00    1.84063E-09
 1.31039E+00    1.99936E-09
 1.33363E+00    2.37662E-09
 1.33800E+00    2.44754E-09
 1.33869E+00    2.45869E-09
 1.34210E+00    2.51404E-09
 1.35190E+00    2.67327E-09
 1.35286E+00    2.68882E-09
 1.36295E+00    2.85263E-09
 1.40000E+00    3.45400E-09
 1.60000E+00    3.93900E-08
 1.80000E+00    3.49800E-07
 2.00000E+00    2.50200E-06
 2.20000E+00    1.43500E-05
 2.40000E+00    6.10900E-05
 2.60000E+00    1.97200E-04
 2.80000E+00    5.31100E-04
 3.00000E+00    1.26300E-03
 3.25000E+00    3.26700E-03
 3.50000E+00    7.22900E-03
 3.75000E+00    1.45300E-02
 4.00000E+00    2.62500E-02
 4.25000E+00    4.39000E-02
 4.50000E+00    6.89300E-02
 4.75000E+00    1.00900E-01
 5.00000E+00    1.43300E-01
 5.50000E+00    2.50200E-01
 6.00000E+00    3.84500E-01
 6.50000E+00    5.43100E-01
 7.00000E+00    7.35500E-01
 7.50000E+00    9.90000E-01
 8.00000E+00    1.34000E+00
 8.50000E+00    1.87500E+00
 9.00000E+00    2.62400E+00
 9.50000E+00    3.62400E+00
 1.00000E+01    4.90600E+00
 1.10000E+01    8.40500E+00
 1.20000E+01    1.33008E+01
 1.30000E+01    1.98453E+01
 1.40000E+01    2.79919E+01
 1.50000E+01    3.77280E+01
 1.60000E+01    4.89450E+01
 1.70000E+01    6.14400E+01
 1.80000E+01    7.51100E+01
 1.90000E+01    8.99700E+01
 2.00000E+01    1.06090E+02
