# n + Cd111 : (n,xa)    
# jendl4.0   S.Kunieda, A.Ichihara, K.Shibata+ EVAL-FEB22
# 
# # energies =    94
#   E(MeV)        xs(mb) 
 2.47622E-01    1.15076E-03
 2.50000E-01    1.15200E-03
 3.00000E-01    1.06500E-03
 3.45247E-01    1.05143E-03
 3.50000E-01    1.05000E-03
 3.99817E-01    1.00118E-03
 4.00000E-01    1.00100E-03
 4.20510E-01    1.00141E-03
 4.50000E-01    1.00200E-03
 5.00000E-01    1.04200E-03
 5.50000E-01    1.11400E-03
 6.00000E-01    1.21200E-03
 6.25821E-01    1.25951E-03
 6.50000E-01    1.30400E-03
 6.86669E-01    1.38320E-03
 7.00000E-01    1.41200E-03
 7.06366E-01    1.42575E-03
 7.11341E-01    1.43650E-03
 7.42694E-01    1.50422E-03
 7.50000E-01    1.52000E-03
 7.59657E-01    1.52406E-03
 7.61766E-01    1.52494E-03
 8.00000E-01    1.54100E-03
 8.38820E-01    1.58836E-03
 8.50000E-01    1.60200E-03
 8.61706E-01    1.60411E-03
 8.63382E-01    1.60441E-03
 8.72665E-01    1.60608E-03
 8.74482E-01    1.60641E-03
 9.00000E-01    1.61100E-03
 9.50000E-01    1.64400E-03
 9.76703E-01    1.68459E-03
 9.95502E-01    1.71316E-03
 1.00000E+00    1.72000E-03
 1.02601E+00    1.74120E-03
 1.02928E+00    1.74386E-03
 1.05628E+00    1.76587E-03
 1.06711E+00    1.77469E-03
 1.08806E+00    1.79177E-03
 1.12571E+00    1.82245E-03
 1.12858E+00    1.82479E-03
 1.14028E+00    1.83433E-03
 1.16147E+00    1.85160E-03
 1.19651E+00    1.88016E-03
 1.20000E+00    1.88300E-03
 1.20078E+00    1.88401E-03
 1.26802E+00    1.97108E-03
 1.28627E+00    1.99472E-03
 1.30061E+00    2.01329E-03
 1.31039E+00    2.02596E-03
 1.33363E+00    2.05605E-03
 1.33800E+00    2.06171E-03
 1.33869E+00    2.06260E-03
 1.34210E+00    2.06701E-03
 1.35190E+00    2.07972E-03
 1.35286E+00    2.08096E-03
 1.36295E+00    2.09403E-03
 1.40000E+00    2.14200E-03
 1.60000E+00    2.46000E-03
 1.80000E+00    2.99900E-03
 2.00000E+00    3.75100E-03
 2.20000E+00    4.71200E-03
 2.40000E+00    5.88500E-03
 2.60000E+00    7.28300E-03
 2.80000E+00    8.94600E-03
 3.00000E+00    1.09000E-02
 3.25000E+00    1.40200E-02
 3.50000E+00    1.72500E-02
 3.75000E+00    2.16000E-02
 4.00000E+00    2.60200E-02
 4.25000E+00    3.18200E-02
 4.50000E+00    3.74800E-02
 4.75000E+00    4.48900E-02
 5.00000E+00    5.17500E-02
 5.50000E+00    6.91700E-02
 6.00000E+00    9.09100E-02
 6.50000E+00    1.19700E-01
 7.00000E+00    1.60700E-01
 7.50000E+00    2.22800E-01
 8.00000E+00    3.20500E-01
 8.50000E+00    4.74603E-01
 9.00000E+00    7.11119E-01
 9.50000E+00    1.06110E+00
 1.00000E+01    1.55939E+00
 1.10000E+01    3.13227E+00
 1.20000E+01    5.61764E+00
 1.30000E+01    8.99017E+00
 1.40000E+01    1.31291E+01
 1.50000E+01    1.77236E+01
 1.60000E+01    2.24520E+01
 1.70000E+01    2.70900E+01
 1.80000E+01    3.14600E+01
 1.90000E+01    3.54500E+01
 2.00000E+01    3.90400E+01
