# n + Yb170 : (n,xp)    
# jendl4.0   S.Kunieda, A.Ichihara, K.Shibata+ EVAL-FEB10
# 
# # energies =    72
#   E(MeV)        xs(mb) 
 8.47551E-02    0.00000E+00
 9.00000E-02    0.00000E+00
 1.00000E-01    0.00000E+00
 1.20000E-01    0.00000E+00
 1.40000E-01    0.00000E+00
 1.60000E-01    0.00000E+00
 1.80000E-01    0.00000E+00
 2.00000E-01    0.00000E+00
 2.50000E-01    0.00000E+00
 2.79087E-01    0.00000E+00
 3.00000E-01    0.00000E+00
 3.50000E-01    0.00000E+00
 4.00000E-01    0.00000E+00
 4.50000E-01    0.00000E+00
 5.00000E-01    0.00000E+00
 5.50000E-01    0.00000E+00
 5.76814E-01    0.00000E+00
 6.00000E-01    0.00000E+00
 6.50000E-01    0.00000E+00
 7.00000E-01    0.00000E+00
 7.50000E-01    0.00000E+00
 8.00000E-01    0.00000E+00
 8.50000E-01    0.00000E+00
 9.00000E-01    0.00000E+00
 9.50000E-01    0.00000E+00
 9.69249E-01    0.00000E+00
 1.00000E+00    0.00000E+00
 1.07570E+00    0.00000E+00
 1.14533E+00    0.00000E+00
 1.15252E+00    0.00000E+00
 1.20000E+00    0.00000E+00
 1.23263E+00    0.00000E+00
 1.23617E+00    0.00000E+00
 1.26596E+00    0.00000E+00
 1.27602E+00    0.00000E+00
 1.40000E+00    0.00000E+00
 1.60000E+00    0.00000E+00
 1.80000E+00    0.00000E+00
 2.00000E+00    0.00000E+00
 2.20000E+00    0.00000E+00
 2.40000E+00    0.00000E+00
 2.60000E+00    0.00000E+00
 2.80000E+00    0.00000E+00
 3.00000E+00    0.00000E+00
 3.25000E+00    0.00000E+00
 3.50000E+00    0.00000E+00
 3.75000E+00    0.00000E+00
 4.00000E+00    0.00000E+00
 4.25000E+00    1.81400E-04
 4.50000E+00    8.59300E-04
 4.75000E+00    1.84500E-03
 5.00000E+00    3.35600E-03
 5.50000E+00    1.06300E-02
 6.00000E+00    2.09600E-02
 6.50000E+00    4.17100E-02
 7.00000E+00    7.14700E-02
 7.50000E+00    1.21800E-01
 8.00000E+00    2.07300E-01
 8.50000E+00    3.34400E-01
 9.00000E+00    5.56000E-01
 9.50000E+00    8.51600E-01
 1.00000E+01    1.32000E+00
 1.10000E+01    2.67823E+00
 1.20000E+01    4.71369E+00
 1.30000E+01    7.43992E+00
 1.40000E+01    1.08207E+01
 1.50000E+01    1.49298E+01
 1.60000E+01    1.97810E+01
 1.70000E+01    2.52160E+01
 1.80000E+01    3.11690E+01
 1.90000E+01    3.74400E+01
 2.00000E+01    4.41700E+01
