# n + Xe136 : (n,xa)    
# jendl4.0   S.Kunieda, A.Ichihara, K.Shibata+ EVAL-FEB22
# 
# # energies =    49
#   E(MeV)        xs(mb) 
 1.32278E+00    3.89328E-12
 1.40000E+00    5.51500E-12
 1.60000E+00    1.61500E-11
 1.70696E+00    2.70765E-11
 1.80000E+00    3.65800E-11
 1.90574E+00    8.65528E-11
 2.00000E+00    1.31100E-10
 2.14147E+00    3.66287E-10
 2.20000E+00    4.63600E-10
 2.27831E+00    8.56892E-10
 2.30652E+00    9.98553E-10
 2.40000E+00    1.46800E-09
 2.43267E+00    1.90221E-09
 2.46254E+00    2.29918E-09
 2.48331E+00    2.57526E-09
 2.57888E+00    3.84530E-09
 2.60000E+00    4.12600E-09
 2.60157E+00    4.18241E-09
 2.61164E+00    4.54528E-09
 2.80000E+00    1.13300E-08
 3.00000E+00    2.99700E-08
 3.25000E+00    9.09500E-08
 3.50000E+00    2.75200E-07
 3.75000E+00    7.17600E-07
 4.00000E+00    1.87500E-06
 4.25000E+00    4.18400E-06
 4.50000E+00    9.35700E-06
 4.75000E+00    1.81700E-05
 5.00000E+00    3.56600E-05
 5.50000E+00    1.09200E-04
 6.00000E+00    2.81300E-04
 6.50000E+00    6.30000E-04
 7.00000E+00    1.25900E-03
 7.50000E+00    2.28900E-03
 8.00000E+00    3.64200E-03
 8.50000E+00    5.73003E-03
 9.00000E+00    8.50607E-03
 9.50000E+00    1.19901E-02
 1.00000E+01    1.60504E-02
 1.10000E+01    2.57767E-02
 1.20000E+01    3.91230E-02
 1.30000E+01    6.33753E-02
 1.40000E+01    1.14829E-01
 1.50000E+01    2.15953E-01
 1.60000E+01    3.85280E-01
 1.70000E+01    6.30930E-01
 1.80000E+01    9.49570E-01
 1.90000E+01    1.33120E+00
 2.00000E+01    1.76060E+00
