# n + Xe136 : (n,a)     
# jendl4.0   S.Kunieda, A.Ichihara, K.Shibata+ EVAL-FEB22
# uncertainties: n
# # energies =    50
#   E(MeV)       xs(mb) 
 1.00000E-01    0.00000E+00
 5.00000E-01    1.88500E-15
 5.50000E-01    3.19400E-15
 6.00000E-01    5.28600E-15
 6.50000E-01    8.75400E-15
 7.00000E-01    1.42000E-14
 7.50000E-01    2.31400E-14
 8.00000E-01    3.69700E-14
 8.50000E-01    5.93800E-14
 9.00000E-01    9.36100E-14
 9.50000E-01    1.48700E-13
 1.00000E+00    2.31300E-13
 1.20000E+00    1.31500E-12
 1.40000E+00    5.51500E-12
 1.60000E+00    1.61500E-11
 1.80000E+00    3.65800E-11
 2.00000E+00    1.31100E-10
 2.20000E+00    4.63600E-10
 2.40000E+00    1.46800E-09
 2.60000E+00    4.12600E-09
 2.80000E+00    1.13300E-08
 3.00000E+00    2.99700E-08
 3.25000E+00    9.09500E-08
 3.50000E+00    2.75200E-07
 3.75000E+00    7.17600E-07
 4.00000E+00    1.87500E-06
 4.25000E+00    4.18400E-06
 4.50000E+00    9.35700E-06
 4.75000E+00    1.81700E-05
 5.00000E+00    3.56600E-05
 5.50000E+00    1.09200E-04
 6.00000E+00    2.81300E-04
 6.50000E+00    6.30000E-04
 7.00000E+00    1.25900E-03
 7.50000E+00    2.28900E-03
 8.00000E+00    3.64200E-03
 8.50000E+00    5.73000E-03
 9.00000E+00    8.50600E-03
 9.50000E+00    1.19900E-02
 1.00000E+01    1.60500E-02
 1.10000E+01    2.57700E-02
 1.20000E+01    3.90600E-02
 1.30000E+01    6.30200E-02
 1.40000E+01    1.13400E-01
 1.50000E+01    2.11300E-01
 1.60000E+01    3.71900E-01
 1.70000E+01    5.95400E-01
 1.80000E+01    8.62800E-01
 1.90000E+01    1.13900E+00
 2.00000E+01    1.38500E+00
