# n + Dy156 : (n,xp)    
# jendl.ad   N.Iwamoto                         EVAL-Apr14
# 
# # energies =    98
#   E(MeV)        xs(mb) 
 1.05000E-01    0.00000E+00
 1.10000E-01    0.00000E+00
 1.20000E-01    0.00000E+00
 1.30000E-01    0.00000E+00
 1.38661E-01    0.00000E+00
 1.40000E-01    0.00000E+00
 1.50000E-01    0.00000E+00
 1.60000E-01    0.00000E+00
 1.70000E-01    0.00000E+00
 1.80000E-01    0.00000E+00
 1.90000E-01    0.00000E+00
 2.00000E-01    0.00000E+00
 2.25000E-01    0.00000E+00
 2.50000E-01    0.00000E+00
 2.75000E-01    0.00000E+00
 3.00000E-01    0.00000E+00
 4.00000E-01    0.00000E+00
 4.06805E-01    0.00000E+00
 5.00000E-01    0.00000E+00
 6.00000E-01    0.00000E+00
 6.79970E-01    4.68680E-15
 7.00000E-01    1.67690E-14
 7.75424E-01    1.47090E-13
 8.00000E-01    3.09080E-13
 8.34000E-01    7.27810E-13
 8.96261E-01    2.84090E-12
 9.00000E-01    2.99800E-12
 1.00000E+00    2.30140E-11
 1.02869E+00    4.02280E-11
 1.09532E+00    1.32480E-10
 1.10000E+00    1.43710E-10
 1.17603E+00    5.22520E-10
 1.20000E+00    7.67270E-10
 1.22347E+00    1.10860E-09
 1.30000E+00    3.49080E-09
 1.30157E+00    3.57010E-09
 1.34420E+00    6.40020E-09
 1.37721E+00    1.00280E-08
 1.39125E+00    1.19698E-08
 1.40000E+00    1.31800E-08
 1.41610E+00    1.60360E-08
 1.44658E+00    2.30910E-08
 1.45674E+00    2.60830E-08
 1.48565E+00    3.62840E-08
 1.50000E+00    4.25070E-08
 1.52474E+00    5.59770E-08
 1.53504E+00    6.20030E-08
 1.53615E+00    6.27410E-08
 1.60000E+00    1.24990E-07
 1.61974E+00    1.53372E-07
 1.63515E+00    1.78794E-07
 1.63795E+00    1.83560E-07
 1.68800E+00    3.05422E-07
 1.69077E+00    3.13631E-07
 1.70000E+00    3.41388E-07
 1.73618E+00    4.78695E-07
 1.73997E+00    4.95997E-07
 1.80000E+00    8.75574E-07
 1.90000E+00    2.08619E-06
 2.00000E+00    4.58858E-06
 2.25000E+00    2.40641E-05
 2.50000E+00    1.05123E-04
 2.75000E+00    3.20641E-04
 3.00000E+00    9.29642E-04
 3.50000E+00    4.48685E-03
 4.00000E+00    1.42527E-02
 4.50000E+00    3.35865E-02
 5.00000E+00    6.38728E-02
 5.50000E+00    1.04329E-01
 6.00000E+00    1.46594E-01
 6.50000E+00    2.07179E-01
 7.00000E+00    2.85082E-01
 7.50000E+00    3.96271E-01
 8.00000E+00    5.63847E-01
 8.50000E+00    8.16513E-01
 9.00000E+00    1.18621E+00
 9.50000E+00    1.70233E+00
 1.00000E+01    2.39079E+00
 1.05000E+01    3.27620E+00
 1.10000E+01    4.36575E+00
 1.15000E+01    5.67426E+00
 1.20000E+01    7.19457E+00
 1.25000E+01    8.93492E+00
 1.30000E+01    1.08757E+01
 1.35000E+01    1.30198E+01
 1.40000E+01    1.53413E+01
 1.45000E+01    1.78413E+01
 1.50000E+01    2.04947E+01
 1.55000E+01    2.32973E+01
 1.60000E+01    2.62430E+01
 1.65000E+01    2.93160E+01
 1.70000E+01    3.25117E+01
 1.75000E+01    3.58130E+01
 1.80000E+01    3.92264E+01
 1.85000E+01    4.27293E+01
 1.90000E+01    4.63326E+01
 1.95000E+01    4.99957E+01
 2.00000E+01    5.37451E+01
