# n + Dy156 : (n,tot)   
# jendl.ad   N.Iwamoto                         EVAL-Apr14
# uncertainties: n
# # energies =    69
#   E(MeV)       xs(mb) 
 1.00000E-10    2.27255E+05
 5.00000E-09    6.21153E+04
 1.00000E-08    4.71888E+04
 1.50000E-08    3.97729E+04
 2.00000E-08    3.50972E+04
 2.50000E-08    3.18045E+04
 3.00000E-08    2.93264E+04
 3.50000E-08    2.70651E+04
 4.20000E-08    2.48704E+04
 5.00000E-08    2.30538E+04
 5.80000E-08    2.15402E+04
 6.70000E-08    2.00136E+04
 8.00000E-08    1.82962E+04
 1.00000E-07    1.62166E+04
 1.40000E-07    1.43637E+04
 1.80000E-07    1.31776E+04
 2.20000E-07    1.24309E+04
 2.50000E-07    1.19481E+04
 2.80000E-07    1.16191E+04
 3.00000E-07    1.13990E+04
 3.20000E-07    1.11679E+04
 3.50000E-07    1.08800E+04
 4.00000E-07    1.05303E+04
 5.00000E-07    1.03213E+04
 6.25000E-07    1.04577E+04
 7.80000E-07    1.08330E+04
 8.50000E-07    1.11662E+04
 9.10000E-07    1.14844E+04
 9.50000E-07    1.17095E+04
 9.72000E-07    1.18916E+04
 9.96000E-07    1.20926E+04
 1.02000E-06    1.23186E+04
 1.04500E-06    1.25699E+04
 1.07100E-06    1.28469E+04
 1.09700E-06    1.31493E+04
 1.12300E-06    1.34768E+04
 1.15000E-06    1.48180E+04
 1.30000E-06    1.89198E+04
 1.50000E-06    1.45380E+05
 2.10000E-06    6.14924E+05
 2.60000E-06    1.12818E+06
 3.30000E-06    2.11417E+05
 4.00000E-06    3.59080E+04
 9.87700E-06    1.62112E+05
 1.59680E-05    2.04380E+05
 2.77000E-05    1.60074E+05
 4.80520E-05    9.97270E+04
 7.55014E-05    7.43234E+04
 1.48728E-04    4.21320E+04
 3.67262E-04    2.14416E+04
 9.06898E-04    1.23783E+04
 1.42510E-03    8.71249E+03
 2.23945E-03    6.13688E+03
 3.51910E-03    4.34379E+03
 5.53000E-03    3.08639E+03
 9.11800E-03    2.24492E+03
 1.50300E-02    1.70530E+03
 2.47800E-02    1.34842E+03
 4.08500E-02    1.10752E+03
 6.73400E-02    9.40889E+02
 1.11000E-01    7.90776E+02
 1.83000E-01    6.04658E+02
 3.02000E-01    5.44054E+02
 5.00000E-01    5.63855E+02
 8.21000E-01    5.39582E+02
 1.35300E+00    4.84471E+02
 2.23100E+00    3.43242E+02
 3.67900E+00    1.32977E+02
 6.06500E+00    2.36885E+03
