# n + Dy156 : (n,g)     
# jendl.ad   N.Iwamoto                         EVAL-Apr14
# uncertainties: n
# # energies =    69
#   E(MeV)       xs(mb) 
 1.00000E-10    2.27170E+05
 5.00000E-09    6.21056E+04
 1.00000E-08    4.71878E+04
 1.50000E-08    3.97717E+04
 2.00000E-08    3.50974E+04
 2.50000E-08    3.18041E+04
 3.00000E-08    2.93253E+04
 3.50000E-08    2.70647E+04
 4.20000E-08    2.48695E+04
 5.00000E-08    2.30535E+04
 5.80000E-08    2.15406E+04
 6.70000E-08    2.00125E+04
 8.00000E-08    1.82953E+04
 1.00000E-07    1.62165E+04
 1.40000E-07    1.43633E+04
 1.80000E-07    1.31775E+04
 2.20000E-07    1.24303E+04
 2.50000E-07    1.19479E+04
 2.80000E-07    1.16185E+04
 3.00000E-07    1.13984E+04
 3.20000E-07    1.11674E+04
 3.50000E-07    1.08799E+04
 4.00000E-07    1.05299E+04
 5.00000E-07    1.03170E+04
 6.25000E-07    1.04558E+04
 7.80000E-07    1.08307E+04
 8.50000E-07    1.11637E+04
 9.10000E-07    1.14796E+04
 9.50000E-07    1.17038E+04
 9.72000E-07    1.18853E+04
 9.96000E-07    1.20891E+04
 1.02000E-06    1.23137E+04
 1.04500E-06    1.25656E+04
 1.07100E-06    1.28429E+04
 1.09700E-06    1.31429E+04
 1.12300E-06    1.34736E+04
 1.15000E-06    1.48144E+04
 1.30000E-06    1.89165E+04
 1.50000E-06    1.45396E+05
 2.10000E-06    6.14878E+05
 2.60000E-06    1.12816E+06
 3.30000E-06    2.11461E+05
 4.00000E-06    3.59062E+04
 9.87700E-06    1.62104E+05
 1.59680E-05    2.04381E+05
 2.77000E-05    1.60070E+05
 4.80520E-05    9.97073E+04
 7.55014E-05    7.43072E+04
 1.48728E-04    4.21246E+04
 3.67262E-04    2.14353E+04
 9.06898E-04    1.23739E+04
 1.42510E-03    8.71070E+03
 2.23945E-03    6.13476E+03
 3.51910E-03    4.34275E+03
 5.53000E-03    3.08544E+03
 9.11800E-03    2.24440E+03
 1.50300E-02    1.70505E+03
 2.47800E-02    1.34807E+03
 4.08500E-02    1.10744E+03
 6.73400E-02    9.40886E+02
 1.11000E-01    7.90883E+02
 1.83000E-01    6.04807E+02
 3.02000E-01    5.44255E+02
 5.00000E-01    5.63979E+02
 8.21000E-01    5.39655E+02
 1.35300E+00    4.84456E+02
 2.23100E+00    3.43253E+02
 3.67900E+00    1.32773E+02
 6.06500E+00    1.83913E+01
