# n + Ca  0 : (n,xa)
# jendl4.0   K.Shibata                         EVAL-JUN06
#
# # energies =    76
#   E(MeV)          xs(mb) 
 3.81553E-01    3.05301E-06
 4.00000E-01    3.27365E-06
 5.00000E-01    4.89495E-06
 6.00000E-01    7.95261E-06
 6.07333E-01    7.99766E-06
 7.00000E-01    8.56684E-06
 8.00000E-01    1.27409E-05
 9.00000E-01    1.94799E-05
 1.00000E+00    2.96721E-05
 1.01355E+00    3.33173E-05
 1.42724E+00    1.44591E-04
 1.50000E+00    1.64160E-04
 1.71720E+00    3.66351E-04
 1.94645E+00    5.79772E-04
 1.97665E+00    6.07880E-04
 2.00000E+00    6.29620E-04
 2.00336E+00    6.35925E-04
 2.09435E+00    8.06661E-04
 2.11584E+00    8.46993E-04
 2.14306E+00    8.98077E-04
 2.15207E+00    9.14979E-04
 2.27622E+00    1.14794E-03
 2.30181E+00    1.19596E-03
 2.32606E+00    1.24147E-03
 2.46638E+00    1.50478E-03
 2.50000E+00    1.56786E-03
 2.58224E+00    1.95977E-03
 2.67231E+00    2.38897E-03
 2.73648E+00    2.69477E-03
 2.76022E+00    2.80791E-03
 2.81764E+00    3.08153E-03
 2.81866E+00    3.08640E-03
 2.83473E+00    3.16298E-03
 2.91252E+00    3.53366E-03
 2.94557E+00    3.69118E-03
 3.00000E+00    3.95055E-03
 3.01231E+00    4.11339E-03
 3.02070E+00    4.22440E-03
 3.09971E+00    5.26968E-03
 3.12100E+00    5.55133E-03
 3.12212E+00    5.56617E-03
 3.14812E+00    5.91012E-03
 3.16880E+00    6.18369E-03
 3.16982E+00    6.19719E-03
 3.27135E+00    7.54039E-03
 3.35497E+00    8.64665E-03
 3.36285E+00    8.75091E-03
 3.39314E+00    9.15165E-03
 3.45046E+00    1.11420E+02
 3.45629E+00    1.12067E+02
 3.49928E+00    1.16838E+02
 3.50000E+00    1.16918E+02
 4.00000E+00    1.65665E+02
 4.50000E+00    1.89715E+02
 5.00000E+00    2.10964E+02
 5.50000E+00    2.17388E+02
 6.00000E+00    2.21628E+02
 6.50000E+00    2.29175E+02
 7.00000E+00    2.37398E+02
 7.50000E+00    2.46704E+02
 8.00000E+00    2.54383E+02
 8.50000E+00    2.54992E+02
 9.00000E+00    2.48985E+02
 9.50000E+00    2.39276E+02
 1.00000E+01    2.28080E+02
 1.10000E+01    2.07283E+02
 1.20000E+01    1.93311E+02
 1.30000E+01    1.88219E+02
 1.40000E+01    1.90903E+02
 1.45000E+01    1.94009E+02
 1.50000E+01    1.97593E+02
 1.60000E+01    2.04427E+02
 1.70000E+01    2.09148E+02
 1.80000E+01    2.10744E+02
 1.90000E+01    2.10528E+02
 2.00000E+01    2.09008E+02
