# n + Ca  0 : (n,xp)
# jendl4.0   K.Shibata                         EVAL-JUN06
#
# # energies =    76
#   E(MeV)          xs(mb) 
 3.81553E-01    0.00000E+00
 4.00000E-01    0.00000E+00
 5.00000E-01    0.00000E+00
 6.00000E-01    0.00000E+00
 6.07333E-01    0.00000E+00
 7.00000E-01    0.00000E+00
 8.00000E-01    0.00000E+00
 9.00000E-01    0.00000E+00
 1.00000E+00    0.00000E+00
 1.01355E+00    0.00000E+00
 1.42724E+00    0.00000E+00
 1.50000E+00    0.00000E+00
 1.71720E+00    1.63679E-05
 1.94645E+00    3.36449E-05
 1.97665E+00    3.59201E-05
 2.00000E+00    3.76801E-05
 2.00336E+00    4.20245E-05
 2.09435E+00    1.59669E-04
 2.11584E+00    1.87458E-04
 2.14306E+00    2.22658E-04
 2.15207E+00    2.34304E-04
 2.27622E+00    3.94825E-04
 2.30181E+00    4.27909E-04
 2.32606E+00    4.59272E-04
 2.46638E+00    6.40702E-04
 2.50000E+00    6.84169E-04
 2.58224E+00    1.10986E-03
 2.67231E+00    1.57605E-03
 2.73648E+00    1.90821E-03
 2.76022E+00    2.03112E-03
 2.81764E+00    2.32832E-03
 2.81866E+00    2.33362E-03
 2.83473E+00    2.41679E-03
 2.91252E+00    2.81942E-03
 2.94557E+00    2.99052E-03
 3.00000E+00    3.27223E-03
 3.01231E+00    3.40630E-03
 3.02070E+00    3.49772E-03
 3.09971E+00    4.35851E-03
 3.12100E+00    4.59043E-03
 3.12212E+00    4.60268E-03
 3.14812E+00    4.88590E-03
 3.16880E+00    5.11113E-03
 3.16982E+00    5.12229E-03
 3.27135E+00    6.22834E-03
 3.35497E+00    7.13929E-03
 3.36285E+00    7.22515E-03
 3.39314E+00    7.55519E-03
 3.45046E+00    2.71433E+02
 3.45629E+00    2.72629E+02
 3.49928E+00    2.81444E+02
 3.50000E+00    2.81592E+02
 4.00000E+00    3.39225E+02
 4.50000E+00    3.63228E+02
 5.00000E+00    4.27899E+02
 5.50000E+00    4.90137E+02
 6.00000E+00    5.41363E+02
 6.50000E+00    5.76240E+02
 7.00000E+00    5.92718E+02
 7.50000E+00    6.05607E+02
 8.00000E+00    6.14317E+02
 8.50000E+00    6.17391E+02
 9.00000E+00    6.18731E+02
 9.50000E+00    6.16185E+02
 1.00000E+01    6.23115E+02
 1.10000E+01    6.55034E+02
 1.20000E+01    6.84766E+02
 1.30000E+01    7.00492E+02
 1.40000E+01    7.01278E+02
 1.45000E+01    6.96918E+02
 1.50000E+01    6.94258E+02
 1.60000E+01    6.82272E+02
 1.70000E+01    6.74781E+02
 1.80000E+01    6.68547E+02
 1.90000E+01    6.61654E+02
 2.00000E+01    6.53856E+02
