# n + Ca  0 : (n,xn)
# jendl4.0   K.Shibata                         EVAL-JUN06
#
# # energies =    76
#   E(MeV)          xs(mb) 
 3.81553E-01    0.00000E+00
 4.00000E-01    1.05077E-01
 5.00000E-01    1.99743E-01
 6.00000E-01    2.40038E-01
 6.07333E-01    2.41197E-01
 7.00000E-01    2.87346E-01
 8.00000E-01    3.18900E-01
 9.00000E-01    3.45687E-01
 1.00000E+00    3.71073E-01
 1.01355E+00    3.73343E-01
 1.42724E+00    6.27543E+00
 1.50000E+00    8.07237E+00
 1.71720E+00    1.06463E+01
 1.94645E+00    1.43577E+01
 1.97665E+00    1.53132E+01
 2.00000E+00    1.60755E+01
 2.00336E+00    1.60966E+01
 2.09435E+00    1.66699E+01
 2.11584E+00    1.68064E+01
 2.14306E+00    1.69855E+01
 2.15207E+00    1.70475E+01
 2.27622E+00    1.79085E+01
 2.30181E+00    1.80876E+01
 2.32606E+00    1.82670E+01
 2.46638E+00    1.96624E+01
 2.50000E+00    2.04684E+01
 2.58224E+00    2.07059E+01
 2.67231E+00    2.09808E+01
 2.73648E+00    2.13806E+01
 2.76022E+00    2.17105E+01
 2.81764E+00    2.25129E+01
 2.81866E+00    2.25273E+01
 2.83473E+00    2.27673E+01
 2.91252E+00    2.39300E+01
 2.94557E+00    2.44326E+01
 3.00000E+00    2.52615E+01
 3.01231E+00    2.52464E+01
 3.02070E+00    2.52362E+01
 3.09971E+00    2.51470E+01
 3.12100E+00    2.51331E+01
 3.12212E+00    2.51334E+01
 3.14812E+00    2.51445E+01
 3.16880E+00    2.51541E+01
 3.16982E+00    2.51546E+01
 3.27135E+00    2.52069E+01
 3.35497E+00    2.52732E+01
 3.36285E+00    2.52841E+01
 3.39314E+00    2.55666E+01
 3.45046E+00    3.23888E+01
 3.45629E+00    3.50187E+01
 3.49928E+00    5.46530E+01
 3.50000E+00    5.49848E+01
 4.00000E+00    1.54329E+02
 4.50000E+00    3.16952E+02
 5.00000E+00    3.55068E+02
 5.50000E+00    3.90504E+02
 6.00000E+00    4.13191E+02
 6.50000E+00    4.29573E+02
 7.00000E+00    4.50049E+02
 7.50000E+00    4.64448E+02
 8.00000E+00    4.73775E+02
 8.50000E+00    4.74103E+02
 9.00000E+00    4.75135E+02
 9.50000E+00    4.71722E+02
 1.00000E+01    4.73204E+02
 1.10000E+01    5.05138E+02
 1.20000E+01    5.93796E+02
 1.30000E+01    6.99764E+02
 1.40000E+01    7.96562E+02
 1.45000E+01    8.38532E+02
 1.50000E+01    8.75139E+02
 1.60000E+01    9.32973E+02
 1.70000E+01    9.71084E+02
 1.80000E+01    9.92879E+02
 1.90000E+01    1.00244E+03
 2.00000E+01    1.00245E+03
