# n + Pt195 : (n,xa)    
# jendl.ad   K.Shibata (JAEA)                  EVAL-Jun15
# 
# # energies =    67
#   E(MeV)        xs(mb) 
 2.60642E-01    1.08591E-05
 3.00000E-01    1.00023E-05
 3.91173E-01    9.60679E-06
 4.00000E-01    9.46509E-06
 4.21874E-01    9.48341E-06
 4.34235E-01    9.41067E-06
 4.34436E-01    9.40949E-06
 4.51986E-01    9.36935E-06
 4.57555E-01    9.30282E-06
 5.00000E-01    9.17545E-06
 5.10709E-01    9.19858E-06
 5.27563E-01    9.20682E-06
 5.41789E-01    9.17604E-06
 5.47016E-01    9.18263E-06
 5.50101E-01    9.15422E-06
 5.65722E-01    9.16188E-06
 5.93953E-01    9.26174E-06
 6.00000E-01    9.24611E-06
 6.15890E-01    9.29041E-06
 6.33398E-01    9.33922E-06
 6.35370E-01    9.33436E-06
 6.67636E-01    9.44888E-06
 6.70551E-01    9.44520E-06
 6.81508E-01    9.49177E-06
 6.98897E-01    9.56569E-06
 7.00000E-01    9.56401E-06
 7.43372E-01    9.84123E-06
 7.69762E-01    1.00099E-05
 7.97103E-01    1.02292E-05
 8.00000E-01    1.02527E-05
 8.18734E-01    1.04069E-05
 8.26102E-01    1.04675E-05
 8.79527E-01    1.09621E-05
 9.00000E-01    1.11989E-05
 1.00000E+00    1.25894E-05
 1.50000E+00    2.76272E-05
 2.00000E+00    6.14175E-05
 2.50000E+00    1.21187E-04
 2.53000E+00    1.26483E-04
 3.00000E+00    2.14482E-04
 3.50000E+00    3.38233E-04
 4.00000E+00    4.96521E-04
 4.50000E+00    7.00269E-04
 4.55000E+00    7.17519E-04
 4.64000E+00    7.61685E-04
 5.00000E+00    9.62976E-04
 5.50000E+00    1.29225E-03
 6.00000E+00    1.72428E-03
 6.50000E+00    2.33025E-03
 7.00000E+00    3.24540E-03
 7.50000E+00    4.71101E-03
 8.00000E+00    7.10254E-03
 8.50000E+00    1.11682E-02
 9.00000E+00    1.79675E-02
 9.50000E+00    2.92480E-02
 1.00000E+01    4.77149E-02
 1.10000E+01    1.23238E-01
 1.20000E+01    2.96804E-01
 1.30000E+01    6.35163E-01
 1.40000E+01    1.19072E+00
 1.45000E+01    1.55432E+00
 1.50000E+01    1.97426E+00
 1.60000E+01    2.95858E+00
 1.70000E+01    4.09595E+00
 1.80000E+01    5.32991E+00
 1.90000E+01    6.60928E+00
 2.00000E+01    7.89288E+00
