# n + In  0 : (n,xa)
# jeff3.3    S.Kunieda, A.Ichihara, K.Shibata+ EVAL-FEB22
#
# # energies =    71
#   E(MeV)          xs(mb) 
 3.39192E-01    7.56385E-12
 3.50000E-01    7.63957E-12
 4.00000E-01    1.38730E-09
 4.50000E-01    1.90227E-09
 5.00000E-01    2.41571E-09
 5.50000E-01    3.37668E-09
 6.00000E-01    4.31401E-09
 6.02382E-01    4.39656E-09
 6.50000E-01    6.04686E-09
 7.00000E-01    7.44382E-09
 7.50000E-01    1.02472E-08
 8.00000E-01    1.29047E-08
 8.35854E-01    1.65265E-08
 8.50000E-01    1.79554E-08
 8.71716E-01    2.00030E-08
 9.00000E-01    2.26700E-08
 9.41977E-01    3.01278E-08
 9.49694E-01    3.14988E-08
 9.50000E-01    3.15532E-08
 1.00000E+00    4.44978E-08
 1.05064E+00    6.14492E-08
 1.08766E+00    7.38423E-08
 1.14251E+00    9.22033E-08
 1.20000E+00    1.11449E-07
 1.20297E+00    1.13115E-07
 1.29870E+00    1.66794E-07
 1.30192E+00    1.68599E-07
 1.35933E+00    2.00791E-07
 1.40000E+00    2.23596E-07
 1.43070E+00    2.56447E-07
 1.46150E+00    2.89405E-07
 1.47615E+00    3.05082E-07
 1.48290E+00    3.12305E-07
 1.49148E+00    3.21486E-07
 1.50157E+00    3.32283E-07
 1.60000E+00    4.37610E-07
 1.80000E+00    8.63668E-07
 2.00000E+00    1.55979E-06
 2.20000E+00    2.68821E-06
 2.40000E+00    4.51542E-06
 2.60000E+00    7.55571E-06
 2.80000E+00    1.26852E-05
 3.00000E+00    2.11947E-05
 3.25000E+00    4.29138E-05
 3.50000E+00    7.28694E-05
 3.75000E+00    1.39956E-04
 4.00000E+00    2.24220E-04
 4.25000E+00    3.98783E-04
 4.50000E+00    5.96179E-04
 4.75000E+00    9.83397E-04
 5.00000E+00    1.38493E-03
 5.50000E+00    2.83342E-03
 6.00000E+00    5.20003E-03
 6.50000E+00    8.85373E-03
 7.00000E+00    1.43921E-02
 7.50000E+00    2.27406E-02
 8.00000E+00    3.47153E-02
 8.50000E+00    5.32221E-02
 9.00000E+00    8.08635E-02
 9.50000E+00    1.21653E-01
 1.00000E+01    1.80793E-01
 1.10000E+01    3.79075E-01
 1.20000E+01    7.29395E-01
 1.30000E+01    1.27462E+00
 1.40000E+01    2.02850E+00
 1.50000E+01    2.97637E+00
 1.60000E+01    4.08083E+00
 1.70000E+01    5.30305E+00
 1.80000E+01    6.60388E+00
 1.90000E+01    7.95609E+00
 2.00000E+01    9.33925E+00
