# n + Pb206 : (n,xp)    
# jendl4.0   O.Iwamoto, N.Iwamoto              EVAL-MAR10
# 
# # energies =    66
#   E(MeV)        xs(mb) 
 1.50000E-01    0.00000E+00
 2.00000E-01    0.00000E+00
 4.00000E-01    0.00000E+00
 5.00000E-01    0.00000E+00
 6.00000E-01    0.00000E+00
 8.00000E-01    7.86169E-22
 8.07033E-01    9.05517E-22
 1.00000E+00    4.18010E-21
 1.17171E+00    7.09395E-21
 1.20000E+00    7.57402E-21
 1.34710E+00    1.00703E-20
 1.40000E+00    1.09680E-20
 1.47398E+00    1.22234E-20
 1.50000E+00    1.26649E-20
 1.60000E+00    1.43619E-20
 1.69229E+00    1.59280E-20
 1.71184E+00    1.62598E-20
 1.79294E+00    1.76360E-20
 1.80000E+00    2.25790E-20
 2.00000E+00    1.11530E-17
 2.00749E+00    1.36650E-17
 2.15842E+00    5.72400E-16
 2.20746E+00    1.67850E-15
 2.21098E+00    1.80750E-15
 2.24665E+00    3.80520E-15
 2.32634E+00    1.83150E-14
 2.39586E+00    6.49020E-14
 2.39587E+00    6.49142E-14
 2.40310E+00    7.37250E-14
 2.43497E+00    1.26700E-13
 2.50000E+00    3.66100E-13
 3.00000E+00    2.67970E-10
 3.50000E+00    2.99180E-08
 4.00000E+00    1.01369E-06
 4.50000E+00    1.50350E-05
 5.00000E+00    1.21287E-04
 5.50000E+00    6.10952E-04
 6.00000E+00    2.13011E-03
 6.50000E+00    5.58604E-03
 7.00000E+00    1.17764E-02
 7.50000E+00    2.10952E-02
 8.00000E+00    3.37469E-02
 8.50000E+00    5.06699E-02
 9.00000E+00    7.48251E-02
 9.50000E+00    1.12301E-01
 1.00000E+01    1.72723E-01
 1.05000E+01    2.69281E-01
 1.10000E+01    4.15600E-01
 1.15000E+01    6.29447E-01
 1.20000E+01    9.31092E-01
 1.25000E+01    1.33500E+00
 1.30000E+01    1.86036E+00
 1.35000E+01    2.52697E+00
 1.40000E+01    3.34435E+00
 1.45000E+01    4.33015E+00
 1.50000E+01    5.48289E+00
 1.55000E+01    6.80915E+00
 1.60000E+01    8.30374E+00
 1.65000E+01    9.95511E+00
 1.70000E+01    1.17688E+01
 1.75000E+01    1.37251E+01
 1.80000E+01    1.58153E+01
 1.85000E+01    1.80502E+01
 1.90000E+01    2.04156E+01
 1.95000E+01    2.29105E+01
 2.00000E+01    2.55325E+01
