# n + Xe130 : (n,tot)   
# jendl.ad   kunieda                           EVAL-Mar14
# uncertainties: n
# # energies =    69
#   E(MeV)       xs(mb) 
 1.00000E-10    3.35976E+04
 5.00000E-09    9.14795E+03
 1.00000E-08    6.92800E+03
 1.50000E-08    5.82095E+03
 2.00000E-08    5.12101E+03
 2.50000E-08    4.62659E+03
 3.00000E-08    4.25331E+03
 3.50000E-08    3.91065E+03
 4.20000E-08    3.57650E+03
 5.00000E-08    3.29879E+03
 5.80000E-08    3.06604E+03
 6.70000E-08    2.82990E+03
 8.00000E-08    2.56053E+03
 1.00000E-07    2.22740E+03
 1.40000E-07    1.92232E+03
 1.80000E-07    1.71618E+03
 2.20000E-07    1.58030E+03
 2.50000E-07    1.48786E+03
 2.80000E-07    1.42172E+03
 3.00000E-07    1.37492E+03
 3.20000E-07    1.32287E+03
 3.50000E-07    1.25108E+03
 4.00000E-07    1.14474E+03
 5.00000E-07    1.02412E+03
 6.25000E-07    9.16215E+02
 7.80000E-07    8.47781E+02
 8.50000E-07    8.15637E+02
 9.10000E-07    7.93181E+02
 9.50000E-07    7.80196E+02
 9.72000E-07    7.71055E+02
 9.96000E-07    7.61834E+02
 1.02000E-06    7.53030E+02
 1.04500E-06    7.43884E+02
 1.07100E-06    7.34939E+02
 1.09700E-06    7.26250E+02
 1.12300E-06    7.17499E+02
 1.15000E-06    6.91801E+02
 1.30000E-06    6.47296E+02
 1.50000E-06    5.74438E+02
 2.10000E-06    5.00223E+02
 2.60000E-06    4.46544E+02
 3.30000E-06    4.00804E+02
 4.00000E-06    3.06900E+02
 9.87700E-06    2.15975E+02
 1.59680E-05    1.68618E+02
 2.77000E-05    1.34788E+02
 4.80520E-05    1.30572E+02
 7.55014E-05    2.83049E+04
 1.48728E-04    6.41450E+01
 3.67262E-04    5.68169E+03
 9.06898E-04    1.17346E+03
 1.42510E-03    6.16950E+02
 2.23945E-03    1.77492E+03
 3.51910E-03    3.63787E+02
 5.53000E-03    2.94805E+02
 9.11800E-03    2.22487E+02
 1.50300E-02    1.63573E+02
 2.47800E-02    1.19363E+02
 4.08500E-02    8.96183E+01
 6.73400E-02    7.18451E+01
 1.11000E-01    6.13059E+01
 1.83000E-01    5.58352E+01
 3.02000E-01    5.59442E+01
 5.00000E-01    3.57438E+01
 8.21000E-01    2.77656E+01
 1.35300E+00    2.29198E+01
 2.23100E+00    1.59130E+01
 3.67900E+00    6.65726E+00
 6.06500E+00    1.85119E+03
