# n + Xe130 : (n,xa)    
# jendl.ad   kunieda                           EVAL-Mar14
# 
# # energies =    80
#   E(MeV)        xs(mb) 
 1.50000E-01    0.00000E+00
 2.00000E-01    0.00000E+00
 3.00000E-01    0.00000E+00
 4.00000E-01    0.00000E+00
 5.00000E-01    0.00000E+00
 5.40248E-01    0.00000E+00
 6.00000E-01    0.00000E+00
 7.00000E-01    0.00000E+00
 8.00000E-01    0.00000E+00
 9.00000E-01    0.00000E+00
 1.00000E+00    0.00000E+00
 1.13086E+00    0.00000E+00
 1.20000E+00    0.00000E+00
 1.21396E+00    0.00000E+00
 1.40000E+00    0.00000E+00
 1.60000E+00    0.00000E+00
 1.60265E+00    0.00000E+00
 1.64521E+00    0.00000E+00
 1.80000E+00    0.00000E+00
 1.80747E+00    0.00000E+00
 1.82222E+00    0.00000E+00
 1.95918E+00    0.00000E+00
 1.95919E+00    0.00000E+00
 2.00000E+00    0.00000E+00
 2.03275E+00    0.00000E+00
 2.07559E+00    0.00000E+00
 2.09813E+00    0.00000E+00
 2.11971E+00    0.00000E+00
 2.16691E+00    0.00000E+00
 2.18850E+00    0.00000E+00
 2.20000E+00    0.00000E+00
 2.24078E+00    0.00000E+00
 2.24079E+00    0.00000E+00
 2.26040E+00    1.71642E-13
 2.31393E+00    9.94524E-12
 2.32571E+00    1.20961E-11
 2.32794E+00    1.25032E-11
 2.36418E+00    1.91200E-11
 2.38042E+00    2.20851E-11
 2.39364E+00    2.44988E-11
 2.40000E+00    2.56601E-11
 2.40475E+00    2.65273E-11
 2.44602E+00    3.40624E-11
 2.46099E+00    3.67957E-11
 2.70000E+00    7.60063E-09
 3.00000E+00    1.07105E-07
 3.50000E+00    1.19327E-06
 4.00000E+00    9.60720E-06
 4.50000E+00    5.80156E-05
 5.00000E+00    2.83280E-04
 5.50000E+00    1.10075E-03
 6.00000E+00    3.01022E-03
 6.50000E+00    6.01448E-03
 7.00000E+00    9.51756E-03
 7.50000E+00    1.48982E-02
 8.00000E+00    2.00515E-02
 8.50000E+00    2.85663E-02
 9.00000E+00    3.64062E-02
 9.50000E+00    4.87417E-02
 1.00000E+01    5.98769E-02
 1.05000E+01    7.90367E-02
 1.10000E+01    1.03261E-01
 1.15000E+01    1.39596E-01
 1.20000E+01    1.87994E-01
 1.25000E+01    2.59059E-01
 1.30000E+01    3.51988E-01
 1.35000E+01    4.69515E-01
 1.40000E+01    6.12467E-01
 1.45000E+01    7.76861E-01
 1.50000E+01    9.69932E-01
 1.55000E+01    1.18481E+00
 1.60000E+01    1.42125E+00
 1.65000E+01    1.67587E+00
 1.70000E+01    1.94352E+00
 1.75000E+01    2.22566E+00
 1.80000E+01    2.51153E+00
 1.85000E+01    2.80956E+00
 1.90000E+01    3.10694E+00
 1.95000E+01    3.40963E+00
 2.00000E+01    3.70766E+00
