# n + Xe130 : (n,xp)    
# jendl.ad   kunieda                           EVAL-Mar14
# 
# # energies =    80
#   E(MeV)        xs(mb) 
 1.50000E-01    0.00000E+00
 2.00000E-01    0.00000E+00
 3.00000E-01    0.00000E+00
 4.00000E-01    0.00000E+00
 5.00000E-01    0.00000E+00
 5.40248E-01    0.00000E+00
 6.00000E-01    0.00000E+00
 7.00000E-01    0.00000E+00
 8.00000E-01    0.00000E+00
 9.00000E-01    0.00000E+00
 1.00000E+00    0.00000E+00
 1.13086E+00    0.00000E+00
 1.20000E+00    0.00000E+00
 1.21396E+00    0.00000E+00
 1.40000E+00    0.00000E+00
 1.60000E+00    0.00000E+00
 1.60265E+00    0.00000E+00
 1.64521E+00    0.00000E+00
 1.80000E+00    0.00000E+00
 1.80747E+00    0.00000E+00
 1.82222E+00    0.00000E+00
 1.95918E+00    0.00000E+00
 1.95919E+00    0.00000E+00
 2.00000E+00    0.00000E+00
 2.03275E+00    0.00000E+00
 2.07559E+00    0.00000E+00
 2.09813E+00    0.00000E+00
 2.11971E+00    0.00000E+00
 2.16691E+00    0.00000E+00
 2.18850E+00    4.65824E-12
 2.20000E+00    1.60807E-11
 2.24078E+00    7.07535E-11
 2.24079E+00    7.07719E-11
 2.26040E+00    1.06889E-10
 2.31393E+00    2.05475E-10
 2.32571E+00    2.27170E-10
 2.32794E+00    2.31276E-10
 2.36418E+00    2.98018E-10
 2.38042E+00    3.27926E-10
 2.39364E+00    3.52273E-10
 2.40000E+00    3.63986E-10
 2.40475E+00    3.72734E-10
 2.44602E+00    4.48738E-10
 2.46099E+00    4.76308E-10
 2.70000E+00    9.16481E-10
 3.00000E+00    1.46898E-09
 3.50000E+00    2.38980E-09
 4.00000E+00    1.52840E-06
 4.50000E+00    8.25668E-05
 5.00000E+00    1.22111E-03
 5.50000E+00    8.12310E-03
 6.00000E+00    3.58376E-02
 6.50000E+00    9.63507E-02
 7.00000E+00    2.10884E-01
 7.50000E+00    3.33798E-01
 8.00000E+00    5.51943E-01
 8.50000E+00    7.27271E-01
 9.00000E+00    9.22087E-01
 9.50000E+00    1.15467E+00
 1.00000E+01    1.45307E+00
 1.05000E+01    1.81590E+00
 1.10000E+01    2.34455E+00
 1.15000E+01    3.02463E+00
 1.20000E+01    3.86327E+00
 1.25000E+01    4.88212E+00
 1.30000E+01    6.10845E+00
 1.35000E+01    7.51039E+00
 1.40000E+01    9.14567E+00
 1.45000E+01    1.09638E+01
 1.50000E+01    1.30048E+01
 1.55000E+01    1.52476E+01
 1.60000E+01    1.76654E+01
 1.65000E+01    2.03119E+01
 1.70000E+01    2.31226E+01
 1.75000E+01    2.60797E+01
 1.80000E+01    2.92113E+01
 1.85000E+01    3.24991E+01
 1.90000E+01    3.58671E+01
 1.95000E+01    3.93517E+01
 2.00000E+01    4.29404E+01
