# n + Xe130 : (n,xn)    
# jendl.ad   kunieda                           EVAL-Mar14
# 
# # energies =    80
#   E(MeV)        xs(mb) 
 1.50000E-01    0.00000E+00
 2.00000E-01    5.31042E-04
 3.00000E-01    3.96057E-03
 4.00000E-01    1.43958E-02
 5.00000E-01    3.77006E-02
 5.40248E-01    7.02118E-02
 6.00000E-01    2.34841E+02
 7.00000E-01    3.72612E+02
 8.00000E-01    4.60533E+02
 9.00000E-01    5.30360E+02
 1.00000E+00    5.91180E+02
 1.13086E+00    6.62213E+02
 1.20000E+00    7.72414E+02
 1.21396E+00    7.86880E+02
 1.40000E+00    9.47553E+02
 1.60000E+00    1.06780E+03
 1.60265E+00    1.06922E+03
 1.64521E+00    1.09657E+03
 1.80000E+00    1.20394E+03
 1.80747E+00    1.20808E+03
 1.82222E+00    1.22156E+03
 1.95918E+00    1.30443E+03
 1.95919E+00    1.30444E+03
 2.00000E+00    1.32538E+03
 2.03275E+00    1.34146E+03
 2.07559E+00    1.36686E+03
 2.09813E+00    1.37857E+03
 2.11971E+00    1.38989E+03
 2.16691E+00    1.41487E+03
 2.18850E+00    1.43189E+03
 2.20000E+00    1.43922E+03
 2.24078E+00    1.46301E+03
 2.24079E+00    1.46301E+03
 2.26040E+00    1.47398E+03
 2.31393E+00    1.50581E+03
 2.32571E+00    1.51530E+03
 2.32794E+00    1.51807E+03
 2.36418E+00    1.54401E+03
 2.38042E+00    1.55415E+03
 2.39364E+00    1.56215E+03
 2.40000E+00    1.56588E+03
 2.40475E+00    1.56862E+03
 2.44602E+00    1.59205E+03
 2.46099E+00    1.60027E+03
 2.70000E+00    1.72838E+03
 3.00000E+00    1.89052E+03
 3.50000E+00    2.11539E+03
 4.00000E+00    2.25836E+03
 4.50000E+00    2.31212E+03
 5.00000E+00    2.30202E+03
 5.50000E+00    2.26175E+03
 6.00000E+00    2.20660E+03
 6.50000E+00    2.15692E+03
 7.00000E+00    2.12021E+03
 7.50000E+00    2.09817E+03
 8.00000E+00    2.08854E+03
 8.50000E+00    2.08713E+03
 9.00000E+00    2.08915E+03
 9.50000E+00    2.14939E+03
 1.00000E+01    2.29218E+03
 1.05000E+01    2.64166E+03
 1.10000E+01    2.96822E+03
 1.15000E+01    3.23122E+03
 1.20000E+01    3.39665E+03
 1.25000E+01    3.52475E+03
 1.30000E+01    3.60169E+03
 1.35000E+01    3.65912E+03
 1.40000E+01    3.68969E+03
 1.45000E+01    3.70367E+03
 1.50000E+01    3.71287E+03
 1.55000E+01    3.71869E+03
 1.60000E+01    3.72240E+03
 1.65000E+01    3.72570E+03
 1.70000E+01    3.72782E+03
 1.75000E+01    3.73642E+03
 1.80000E+01    3.75507E+03
 1.85000E+01    3.79479E+03
 1.90000E+01    3.86883E+03
 1.95000E+01    3.95998E+03
 2.00000E+01    4.06447E+03
