# n + Dy  0 : (n,t)
# jendl.ad   N.Iwamoto                         EVAL-Apr14
# uncertainties: n
# # energies =    65
#   E(MeV)          xs(mb) 
 7.12399E+00    1.25348E-16
 7.17937E+00    1.81322E-16
 7.20439E+00    2.06611E-16
 7.23498E+00    2.37529E-16
 7.24022E+00    2.42826E-16
 7.25310E+00    2.55844E-16
 7.29244E+00    2.95606E-16
 7.30402E+00    3.07310E-16
 7.33310E+00    3.36702E-16
 7.34266E+00    3.46365E-16
 7.36751E+00    3.71482E-16
 7.40636E+00    4.10749E-16
 7.42437E+00    4.28952E-16
 7.44862E+00    4.53463E-16
 7.45003E+00    4.54888E-16
 7.46422E+00    4.69230E-16
 7.48606E+00    4.91305E-16
 7.49753E+00    5.02898E-16
 7.50749E+00    4.79833E-15
 7.51484E+00    9.01091E-15
 7.53255E+00    1.91611E-14
 7.53466E+00    2.03705E-14
 7.54593E+00    2.68298E-14
 7.56576E+00    3.81954E-14
 7.57119E+00    4.13074E-14
 7.58779E+00    5.08216E-14
 7.59665E+00    5.58997E-14
 7.61104E+00    6.41473E-14
 7.61436E+00    6.60499E-14
 7.62251E+00    7.07211E-14
 7.63308E+00    7.67793E-14
 7.65834E+00    9.12568E-14
 7.66337E+00    9.41398E-14
 7.66739E+00    9.64437E-14
 7.68349E+00    1.05671E-13
 7.69859E+00    1.14326E-13
 7.71469E+00    1.23554E-13
 7.71771E+00    1.25284E-13
 7.72928E+00    1.31916E-13
 7.73794E+00    1.36879E-13
 7.74085E+00    1.38547E-13
 8.50000E+00    2.26081E-11
 9.00000E+00    5.35415E-10
 9.50000E+00    6.50272E-09
 1.00000E+01    6.76339E-08
 1.05000E+01    6.82243E-07
 1.10000E+01    5.45660E-06
 1.15000E+01    3.23845E-05
 1.20000E+01    1.47421E-04
 1.25000E+01    5.39905E-04
 1.30000E+01    1.62438E-03
 1.35000E+01    4.29454E-03
 1.40000E+01    9.93951E-03
 1.45000E+01    2.04537E-02
 1.50000E+01    3.78407E-02
 1.55000E+01    6.37324E-02
 1.60000E+01    9.99980E-02
 1.65000E+01    1.45609E-01
 1.70000E+01    2.01810E-01
 1.75000E+01    2.68187E-01
 1.80000E+01    3.43893E-01
 1.85000E+01    4.28004E-01
 1.90000E+01    5.16831E-01
 1.95000E+01    6.11727E-01
 2.00000E+01    7.10668E-01
