# n + Dy164 : (n,n'01)  
# jendl4.0   N.Iwamoto,S.Chiba                 EVAL-Nov09
# uncertainties: n
# # energies =    88
#   E(MeV)       xs(mb) 
 7.38436E-02    0.00000E+00
 8.00000E-02    7.53788E+01
 9.00000E-02    1.58173E+02
 1.00000E-01    2.32275E+02
 1.10000E-01    2.98349E+02
 1.20000E-01    3.58204E+02
 1.30000E-01    4.12541E+02
 1.40000E-01    4.63689E+02
 1.50000E-01    5.11809E+02
 1.60000E-01    5.56713E+02
 1.70000E-01    5.99893E+02
 1.80000E-01    6.40880E+02
 1.90000E-01    6.80264E+02
 2.00000E-01    7.18756E+02
 2.25000E-01    8.05814E+02
 2.43722E-01    8.67643E+02
 2.50000E-01    8.87644E+02
 2.75000E-01    9.64773E+02
 3.00000E-01    1.03356E+03
 4.00000E-01    1.26633E+03
 5.00000E-01    1.43936E+03
 5.04407E-01    1.44570E+03
 6.00000E-01    1.56667E+03
 7.00000E-01    1.65684E+03
 7.66508E-01    1.69927E+03
 8.00000E-01    1.65038E+03
 8.33286E-01    1.63557E+03
 8.48871E-01    1.61116E+03
 9.00000E-01    1.57662E+03
 9.21636E-01    1.56383E+03
 9.82901E-01    1.53018E+03
 1.00000E+00    1.50280E+03
 1.03094E+00    1.47058E+03
 1.04570E+00    1.45648E+03
 1.10000E+00    1.39715E+03
 1.12968E+00    1.36758E+03
 1.16286E+00    1.33500E+03
 1.17317E+00    1.32568E+03
 1.20000E+00    1.30289E+03
 1.23268E+00    1.27496E+03
 1.26906E+00    1.24656E+03
 1.30000E+00    1.22263E+03
 1.31062E+00    1.21461E+03
 1.40000E+00    1.15359E+03
 1.50000E+00    1.08458E+03
 1.60000E+00    1.00407E+03
 1.70000E+00    9.24485E+02
 1.80000E+00    8.53620E+02
 1.90000E+00    7.92055E+02
 2.00000E+00    7.39111E+02
 2.25000E+00    6.24033E+02
 2.50000E+00    5.59329E+02
 2.75000E+00    5.07172E+02
 3.00000E+00    4.73285E+02
 3.50000E+00    4.28685E+02
 4.00000E+00    4.02015E+02
 4.50000E+00    3.84906E+02
 5.00000E+00    3.74007E+02
 5.50000E+00    3.66649E+02
 6.00000E+00    3.60469E+02
 6.50000E+00    3.54122E+02
 7.00000E+00    3.47213E+02
 7.50000E+00    3.39791E+02
 8.00000E+00    3.32010E+02
 8.50000E+00    3.24039E+02
 9.00000E+00    3.16065E+02
 9.50000E+00    3.08273E+02
 1.00000E+01    3.00823E+02
 1.05000E+01    2.94055E+02
 1.10000E+01    2.87287E+02
 1.15000E+01    2.81480E+02
 1.20000E+01    2.75673E+02
 1.25000E+01    2.70675E+02
 1.30000E+01    2.65677E+02
 1.35000E+01    2.61267E+02
 1.40000E+01    2.56857E+02
 1.45000E+01    2.52864E+02
 1.50000E+01    2.48871E+02
 1.55000E+01    2.45193E+02
 1.60000E+01    2.41514E+02
 1.65000E+01    2.38101E+02
 1.70000E+01    2.34688E+02
 1.75000E+01    2.31531E+02
 1.80000E+01    2.28373E+02
 1.85000E+01    2.25488E+02
 1.90000E+01    2.22602E+02
 1.95000E+01    2.20012E+02
 2.00000E+01    2.17422E+02
