# n + Dy164 :  n        
# jendl4.0   N.Iwamoto,S.Chiba                 EVAL-Nov09
# uncertainties: n
# # energies =    85
#   E(MeV)       xs(mb) 
 1.05000E-01    0.00000E+00
 1.10000E-01    3.00390E-04
 1.20000E-01    3.63905E-04
 1.30000E-01    3.86093E-04
 1.40000E-01    3.94102E-04
 1.50000E-01    3.97609E-04
 1.60000E-01    4.00470E-04
 1.70000E-01    4.03525E-04
 1.80000E-01    7.12521E-04
 1.90000E-01    7.43107E-04
 2.00000E-01    7.50219E-04
 2.25000E-01    2.57114E-03
 2.43722E-01    2.79471E-03
 2.50000E-01    2.83677E-03
 2.75000E-01    2.97931E-03
 3.00000E-01    5.22188E-03
 4.00000E-01    1.81464E-02
 5.00000E-01    4.64050E-02
 5.04407E-01    5.21159E-02
 6.00000E-01    9.94793E-02
 7.00000E-01    1.90117E-01
 7.66508E-01    2.59624E-01
 8.00000E-01    3.15163E-01
 8.33286E-01    3.74840E-01
 8.48871E-01    3.79196E-01
 9.00000E-01    4.66688E-01
 9.21636E-01    5.28516E-01
 9.82901E-01    6.40306E-01
 1.00000E+00    6.66234E-01
 1.03094E+00    7.52417E-01
 1.04570E+00    7.65684E-01
 1.10000E+00    8.98122E-01
 1.12968E+00    1.00212E+00
 1.16286E+00    1.04104E+00
 1.17317E+00    1.04927E+00
 1.20000E+00    1.19350E+00
 1.23268E+00    1.32672E+00
 1.26906E+00    1.38924E+00
 1.30000E+00    1.57664E+00
 1.31062E+00    1.64157E+00
 1.40000E+00    2.07077E+00
 1.50000E+00    6.34874E+01
 1.60000E+00    2.13137E+02
 1.70000E+00    4.03515E+02
 1.80000E+00    6.11461E+02
 1.90000E+00    8.22134E+02
 2.00000E+00    1.02530E+03
 2.25000E+00    1.51358E+03
 2.50000E+00    1.81005E+03
 2.75000E+00    2.06076E+03
 3.00000E+00    2.22458E+03
 3.50000E+00    2.42864E+03
 4.00000E+00    2.51735E+03
 4.50000E+00    2.54305E+03
 5.00000E+00    2.53886E+03
 5.50000E+00    2.52154E+03
 6.00000E+00    2.49948E+03
 6.50000E+00    2.47700E+03
 7.00000E+00    2.45606E+03
 7.50000E+00    2.43742E+03
 8.00000E+00    2.34229E+03
 8.50000E+00    1.82532E+03
 9.00000E+00    1.26400E+03
 9.50000E+00    8.69379E+02
 1.00000E+01    6.25250E+02
 1.05000E+01    4.75029E+02
 1.10000E+01    3.81216E+02
 1.15000E+01    3.20807E+02
 1.20000E+01    2.79483E+02
 1.25000E+01    2.50173E+02
 1.30000E+01    2.27946E+02
 1.35000E+01    2.10620E+02
 1.40000E+01    1.96444E+02
 1.45000E+01    1.84643E+02
 1.50000E+01    1.74508E+02
 1.55000E+01    1.65740E+02
 1.60000E+01    1.57803E+02
 1.65000E+01    1.50765E+02
 1.70000E+01    1.44298E+02
 1.75000E+01    1.38303E+02
 1.80000E+01    1.32811E+02
 1.85000E+01    1.27944E+02
 1.90000E+01    1.22661E+02
 1.95000E+01    1.18136E+02
 2.00000E+01    1.13658E+02
