# n + Dy164 : (n,xt)    
# jendl4.0   N.Iwamoto,S.Chiba                 EVAL-Nov09
# 
# # energies =    92
#   E(MeV)        xs(mb) 
 7.38436E-02    0.00000E+00
 8.00000E-02    0.00000E+00
 9.00000E-02    0.00000E+00
 1.00000E-01    0.00000E+00
 1.05000E-01    0.00000E+00
 1.10000E-01    0.00000E+00
 1.20000E-01    0.00000E+00
 1.30000E-01    0.00000E+00
 1.40000E-01    0.00000E+00
 1.50000E-01    0.00000E+00
 1.60000E-01    0.00000E+00
 1.70000E-01    0.00000E+00
 1.80000E-01    0.00000E+00
 1.90000E-01    0.00000E+00
 2.00000E-01    0.00000E+00
 2.25000E-01    0.00000E+00
 2.43721E-01    0.00000E+00
 2.43722E-01    0.00000E+00
 2.50000E-01    0.00000E+00
 2.75000E-01    0.00000E+00
 3.00000E-01    0.00000E+00
 4.00000E-01    0.00000E+00
 5.00000E-01    0.00000E+00
 5.04407E-01    0.00000E+00
 6.00000E-01    0.00000E+00
 7.00000E-01    0.00000E+00
 7.66508E-01    0.00000E+00
 8.00000E-01    0.00000E+00
 8.33286E-01    0.00000E+00
 8.48871E-01    0.00000E+00
 9.00000E-01    0.00000E+00
 9.21636E-01    0.00000E+00
 9.82901E-01    0.00000E+00
 1.00000E+00    0.00000E+00
 1.03094E+00    0.00000E+00
 1.04569E+00    0.00000E+00
 1.04570E+00    0.00000E+00
 1.10000E+00    0.00000E+00
 1.12968E+00    0.00000E+00
 1.16286E+00    0.00000E+00
 1.17317E+00    0.00000E+00
 1.20000E+00    0.00000E+00
 1.23268E+00    0.00000E+00
 1.26906E+00    0.00000E+00
 1.30000E+00    0.00000E+00
 1.31061E+00    0.00000E+00
 1.31062E+00    0.00000E+00
 1.40000E+00    0.00000E+00
 1.50000E+00    0.00000E+00
 1.60000E+00    0.00000E+00
 1.70000E+00    0.00000E+00
 1.80000E+00    0.00000E+00
 1.90000E+00    0.00000E+00
 2.00000E+00    0.00000E+00
 2.25000E+00    0.00000E+00
 2.50000E+00    0.00000E+00
 2.75000E+00    0.00000E+00
 3.00000E+00    0.00000E+00
 3.50000E+00    0.00000E+00
 4.00000E+00    0.00000E+00
 4.50000E+00    0.00000E+00
 5.00000E+00    0.00000E+00
 5.50000E+00    0.00000E+00
 6.00000E+00    0.00000E+00
 6.50000E+00    0.00000E+00
 7.00000E+00    0.00000E+00
 7.50000E+00    8.63376E-25
 8.00000E+00    1.40755E-21
 8.50000E+00    2.91070E-21
 9.00000E+00    3.49790E-18
 9.50000E+00    2.06650E-14
 1.00000E+01    8.89800E-12
 1.05000E+01    7.86650E-10
 1.10000E+01    2.46280E-08
 1.15000E+01    3.76410E-07
 1.20000E+01    3.43702E-06
 1.25000E+01    2.14515E-05
 1.30000E+01    1.00326E-04
 1.35000E+01    3.74600E-04
 1.40000E+01    1.16605E-03
 1.45000E+01    3.07895E-03
 1.50000E+01    7.21478E-03
 1.55000E+01    1.47421E-02
 1.60000E+01    2.75914E-02
 1.65000E+01    4.73139E-02
 1.70000E+01    7.39287E-02
 1.75000E+01    1.10048E-01
 1.80000E+01    1.51819E-01
 1.85000E+01    2.02942E-01
 1.90000E+01    2.61343E-01
 1.95000E+01    3.24901E-01
 2.00000E+01    3.93976E-01
