# n + Dy164 : (n,xh)    
# jendl4.0   N.Iwamoto,S.Chiba                 EVAL-Nov09
# 
# # energies =    92
#   E(MeV)        xs(mb) 
 7.38436E-02    0.00000E+00
 8.00000E-02    0.00000E+00
 9.00000E-02    0.00000E+00
 1.00000E-01    0.00000E+00
 1.05000E-01    0.00000E+00
 1.10000E-01    0.00000E+00
 1.20000E-01    0.00000E+00
 1.30000E-01    0.00000E+00
 1.40000E-01    0.00000E+00
 1.50000E-01    0.00000E+00
 1.60000E-01    0.00000E+00
 1.70000E-01    0.00000E+00
 1.80000E-01    0.00000E+00
 1.90000E-01    0.00000E+00
 2.00000E-01    0.00000E+00
 2.25000E-01    0.00000E+00
 2.43721E-01    0.00000E+00
 2.43722E-01    0.00000E+00
 2.50000E-01    0.00000E+00
 2.75000E-01    0.00000E+00
 3.00000E-01    0.00000E+00
 4.00000E-01    0.00000E+00
 5.00000E-01    0.00000E+00
 5.04407E-01    0.00000E+00
 6.00000E-01    0.00000E+00
 7.00000E-01    0.00000E+00
 7.66508E-01    0.00000E+00
 8.00000E-01    0.00000E+00
 8.33286E-01    0.00000E+00
 8.48871E-01    0.00000E+00
 9.00000E-01    0.00000E+00
 9.21636E-01    0.00000E+00
 9.82901E-01    0.00000E+00
 1.00000E+00    0.00000E+00
 1.03094E+00    0.00000E+00
 1.04569E+00    0.00000E+00
 1.04570E+00    0.00000E+00
 1.10000E+00    0.00000E+00
 1.12968E+00    0.00000E+00
 1.16286E+00    0.00000E+00
 1.17317E+00    0.00000E+00
 1.20000E+00    0.00000E+00
 1.23268E+00    0.00000E+00
 1.26906E+00    0.00000E+00
 1.30000E+00    0.00000E+00
 1.31061E+00    0.00000E+00
 1.31062E+00    0.00000E+00
 1.40000E+00    0.00000E+00
 1.50000E+00    0.00000E+00
 1.60000E+00    0.00000E+00
 1.70000E+00    0.00000E+00
 1.80000E+00    0.00000E+00
 1.90000E+00    0.00000E+00
 2.00000E+00    0.00000E+00
 2.25000E+00    0.00000E+00
 2.50000E+00    0.00000E+00
 2.75000E+00    0.00000E+00
 3.00000E+00    0.00000E+00
 3.50000E+00    0.00000E+00
 4.00000E+00    0.00000E+00
 4.50000E+00    0.00000E+00
 5.00000E+00    0.00000E+00
 5.50000E+00    0.00000E+00
 6.00000E+00    0.00000E+00
 6.50000E+00    0.00000E+00
 7.00000E+00    0.00000E+00
 7.50000E+00    0.00000E+00
 8.00000E+00    0.00000E+00
 8.50000E+00    0.00000E+00
 9.00000E+00    1.14318E-34
 9.50000E+00    4.56117E-34
 1.00000E+01    8.40545E-34
 1.05000E+01    1.22497E-33
 1.10000E+01    1.60940E-33
 1.15000E+01    6.68260E-29
 1.20000E+01    3.27500E-25
 1.25000E+01    2.25850E-22
 1.30000E+01    3.86860E-20
 1.35000E+01    2.39010E-18
 1.40000E+01    6.77410E-17
 1.45000E+01    1.05370E-15
 1.50000E+01    1.01860E-14
 1.55000E+01    7.05560E-14
 1.60000E+01    4.13270E-13
 1.65000E+01    2.77100E-12
 1.70000E+01    3.05460E-11
 1.75000E+01    2.53350E-10
 1.80000E+01    1.76800E-09
 1.85000E+01    9.28450E-09
 1.90000E+01    4.01120E-08
 1.95000E+01    1.50620E-07
 2.00000E+01    4.96750E-07
