# n + Dy164 : (n,xd)    
# jendl4.0   N.Iwamoto,S.Chiba                 EVAL-Nov09
# 
# # energies =    92
#   E(MeV)        xs(mb) 
 7.38436E-02    0.00000E+00
 8.00000E-02    0.00000E+00
 9.00000E-02    0.00000E+00
 1.00000E-01    0.00000E+00
 1.05000E-01    0.00000E+00
 1.10000E-01    0.00000E+00
 1.20000E-01    0.00000E+00
 1.30000E-01    0.00000E+00
 1.40000E-01    0.00000E+00
 1.50000E-01    0.00000E+00
 1.60000E-01    0.00000E+00
 1.70000E-01    0.00000E+00
 1.80000E-01    0.00000E+00
 1.90000E-01    0.00000E+00
 2.00000E-01    0.00000E+00
 2.25000E-01    0.00000E+00
 2.43721E-01    0.00000E+00
 2.43722E-01    0.00000E+00
 2.50000E-01    0.00000E+00
 2.75000E-01    0.00000E+00
 3.00000E-01    0.00000E+00
 4.00000E-01    0.00000E+00
 5.00000E-01    0.00000E+00
 5.04407E-01    0.00000E+00
 6.00000E-01    0.00000E+00
 7.00000E-01    0.00000E+00
 7.66508E-01    0.00000E+00
 8.00000E-01    0.00000E+00
 8.33286E-01    0.00000E+00
 8.48871E-01    0.00000E+00
 9.00000E-01    0.00000E+00
 9.21636E-01    0.00000E+00
 9.82901E-01    0.00000E+00
 1.00000E+00    0.00000E+00
 1.03094E+00    0.00000E+00
 1.04569E+00    0.00000E+00
 1.04570E+00    0.00000E+00
 1.10000E+00    0.00000E+00
 1.12968E+00    0.00000E+00
 1.16286E+00    0.00000E+00
 1.17317E+00    0.00000E+00
 1.20000E+00    0.00000E+00
 1.23268E+00    0.00000E+00
 1.26906E+00    0.00000E+00
 1.30000E+00    0.00000E+00
 1.31061E+00    0.00000E+00
 1.31062E+00    0.00000E+00
 1.40000E+00    0.00000E+00
 1.50000E+00    0.00000E+00
 1.60000E+00    0.00000E+00
 1.70000E+00    0.00000E+00
 1.80000E+00    0.00000E+00
 1.90000E+00    0.00000E+00
 2.00000E+00    0.00000E+00
 2.25000E+00    0.00000E+00
 2.50000E+00    0.00000E+00
 2.75000E+00    0.00000E+00
 3.00000E+00    0.00000E+00
 3.50000E+00    0.00000E+00
 4.00000E+00    0.00000E+00
 4.50000E+00    0.00000E+00
 5.00000E+00    0.00000E+00
 5.50000E+00    0.00000E+00
 6.00000E+00    0.00000E+00
 6.50000E+00    1.53498E-25
 7.00000E+00    1.87891E-18
 7.50000E+00    2.49600E-17
 8.00000E+00    6.31700E-17
 8.50000E+00    1.24370E-13
 9.00000E+00    6.31390E-11
 9.50000E+00    7.16150E-09
 1.00000E+01    3.10540E-07
 1.05000E+01    5.04721E-06
 1.10000E+01    4.69328E-05
 1.15000E+01    2.90848E-04
 1.20000E+01    1.32551E-03
 1.25000E+01    4.75676E-03
 1.30000E+01    1.33486E-02
 1.35000E+01    3.35291E-02
 1.40000E+01    7.33920E-02
 1.45000E+01    1.42656E-01
 1.50000E+01    2.50048E-01
 1.55000E+01    4.08034E-01
 1.60000E+01    6.04125E-01
 1.65000E+01    8.55026E-01
 1.70000E+01    1.12119E+00
 1.75000E+01    1.43136E+00
 1.80000E+01    1.78682E+00
 1.85000E+01    2.12303E+00
 1.90000E+01    2.48889E+00
 1.95000E+01    2.88197E+00
 2.00000E+01    3.30240E+00
