# n + Dy164 : (n,n'09)  
# jendl4.0   N.Iwamoto,S.Chiba                 EVAL-Nov09
# uncertainties: n
# # energies =    56
#   E(MeV)       xs(mb) 
 1.03094E+00    0.00000E+00
 1.04570E+00    1.25749E+00
 1.10000E+00    4.39808E+00
 1.12968E+00    6.27567E+00
 1.16286E+00    8.16830E+00
 1.17317E+00    8.78734E+00
 1.20000E+00    1.03262E+01
 1.23268E+00    1.23808E+01
 1.26906E+00    1.45987E+01
 1.30000E+00    1.66050E+01
 1.31062E+00    1.73148E+01
 1.40000E+00    2.33069E+01
 1.50000E+00    2.96112E+01
 1.60000E+00    3.43669E+01
 1.70000E+00    3.77127E+01
 1.80000E+00    3.96690E+01
 1.90000E+00    4.03476E+01
 2.00000E+00    3.99086E+01
 2.25000E+00    3.42154E+01
 2.50000E+00    2.95338E+01
 2.75000E+00    2.29796E+01
 3.00000E+00    1.85767E+01
 3.50000E+00    1.08425E+01
 4.00000E+00    5.98228E+00
 4.50000E+00    3.18364E+00
 5.00000E+00    1.67079E+00
 5.50000E+00    8.92769E-01
 6.00000E+00    5.05055E-01
 6.50000E+00    3.13523E-01
 7.00000E+00    2.17583E-01
 7.50000E+00    1.67596E-01
 8.00000E+00    1.39792E-01
 8.50000E+00    1.22723E-01
 9.00000E+00    1.10951E-01
 9.50000E+00    1.01945E-01
 1.00000E+01    9.45404E-02
 1.05000E+01    8.82101E-02
 1.10000E+01    8.25481E-02
 1.15000E+01    7.75312E-02
 1.20000E+01    7.29236E-02
 1.25000E+01    6.87710E-02
 1.30000E+01    6.49243E-02
 1.35000E+01    6.14455E-02
 1.40000E+01    5.82052E-02
 1.45000E+01    5.52403E-02
 1.50000E+01    5.24882E-02
 1.55000E+01    5.01744E-02
 1.60000E+01    4.79487E-02
 1.65000E+01    4.55610E-02
 1.70000E+01    4.35258E-02
 1.75000E+01    4.16132E-02
 1.80000E+01    4.00246E-02
 1.85000E+01    3.84480E-02
 1.90000E+01    3.68753E-02
 1.95000E+01    3.52522E-02
 2.00000E+01    3.37587E-02
