# n + Dy164 : (n,n')    
# jendl4.0   N.Iwamoto,S.Chiba                 EVAL-Nov09
# uncertainties: n
# # energies =    92
#   E(MeV)       xs(mb) 
 7.38436E-02    0.00000E+00
 8.00000E-02    7.53788E+01
 9.00000E-02    1.58173E+02
 1.00000E-01    2.32275E+02
 1.05000E-01    2.65312E+02
 1.10000E-01    2.98349E+02
 1.20000E-01    3.58204E+02
 1.30000E-01    4.12541E+02
 1.40000E-01    4.63689E+02
 1.50000E-01    5.11809E+02
 1.60000E-01    5.56713E+02
 1.70000E-01    5.99893E+02
 1.80000E-01    6.40881E+02
 1.90000E-01    6.80265E+02
 2.00000E-01    7.18757E+02
 2.25000E-01    8.05817E+02
 2.43721E-01    8.67643E+02
 2.43722E-01    8.67646E+02
 2.50000E-01    8.88156E+02
 2.75000E-01    9.67701E+02
 3.00000E-01    1.03966E+03
 4.00000E-01    1.29564E+03
 5.00000E-01    1.51035E+03
 5.04407E-01    1.51901E+03
 6.00000E-01    1.69530E+03
 7.00000E-01    1.85439E+03
 7.66508E-01    1.94649E+03
 8.00000E-01    2.04331E+03
 8.33286E-01    2.10902E+03
 8.48871E-01    2.15219E+03
 9.00000E-01    2.25187E+03
 9.21636E-01    2.28679E+03
 9.82901E-01    2.37635E+03
 1.00000E+00    2.41597E+03
 1.03094E+00    2.46437E+03
 1.04569E+00    2.48561E+03
 1.04570E+00    2.48564E+03
 1.10000E+00    2.56137E+03
 1.12968E+00    2.59826E+03
 1.16286E+00    2.63774E+03
 1.17317E+00    2.64929E+03
 1.20000E+00    2.67780E+03
 1.23268E+00    2.70652E+03
 1.26906E+00    2.73575E+03
 1.30000E+00    2.75758E+03
 1.31061E+00    2.76471E+03
 1.31062E+00    2.76472E+03
 1.40000E+00    2.81883E+03
 1.50000E+00    2.88012E+03
 1.60000E+00    2.93440E+03
 1.70000E+00    2.98461E+03
 1.80000E+00    3.02865E+03
 1.90000E+00    3.06612E+03
 2.00000E+00    3.09784E+03
 2.25000E+00    3.14116E+03
 2.50000E+00    3.16176E+03
 2.75000E+00    3.16471E+03
 3.00000E+00    3.17014E+03
 3.50000E+00    3.15950E+03
 4.00000E+00    3.13070E+03
 4.50000E+00    3.09114E+03
 5.00000E+00    3.05061E+03
 5.50000E+00    3.01207E+03
 6.00000E+00    2.97540E+03
 6.50000E+00    2.94037E+03
 7.00000E+00    2.90706E+03
 7.50000E+00    2.87573E+03
 8.00000E+00    2.76767E+03
 8.50000E+00    2.23777E+03
 9.00000E+00    1.66380E+03
 9.50000E+00    1.25707E+03
 1.00000E+01    1.00154E+03
 1.05000E+01    8.41110E+02
 1.10000E+01    7.37096E+02
 1.15000E+01    6.67980E+02
 1.20000E+01    6.17956E+02
 1.25000E+01    5.81139E+02
 1.30000E+01    5.51410E+02
 1.35000E+01    5.27466E+02
 1.40000E+01    5.06678E+02
 1.45000E+01    4.88934E+02
 1.50000E+01    4.72860E+02
 1.55000E+01    4.58696E+02
 1.60000E+01    4.45364E+02
 1.65000E+01    4.33380E+02
 1.70000E+01    4.21971E+02
 1.75000E+01    4.11431E+02
 1.80000E+01    4.01395E+02
 1.85000E+01    3.92356E+02
 1.90000E+01    3.82900E+02
 1.95000E+01    3.74582E+02
 2.00000E+01    3.66312E+02
