# n + Dy164 : (n,n'10)  
# jendl4.0   N.Iwamoto,S.Chiba                 EVAL-Nov09
# uncertainties: n
# # energies =    55
#   E(MeV)       xs(mb) 
 1.04569E+00    0.00000E+00
 1.10000E+00    3.89086E+01
 1.12968E+00    5.52211E+01
 1.16286E+00    7.14892E+01
 1.17317E+00    7.64721E+01
 1.20000E+00    8.82431E+01
 1.23268E+00    1.01691E+02
 1.26906E+00    1.14887E+02
 1.30000E+00    1.25228E+02
 1.31062E+00    1.28695E+02
 1.40000E+00    1.54092E+02
 1.50000E+00    1.73144E+02
 1.60000E+00    1.80189E+02
 1.70000E+00    1.78983E+02
 1.80000E+00    1.71727E+02
 1.90000E+00    1.60432E+02
 2.00000E+00    1.46677E+02
 2.25000E+00    1.06103E+02
 2.50000E+00    7.89406E+01
 2.75000E+00    5.42572E+01
 3.00000E+00    3.90580E+01
 3.50000E+00    1.91993E+01
 4.00000E+00    9.36435E+00
 4.50000E+00    4.57769E+00
 5.00000E+00    2.28456E+00
 5.50000E+00    1.19924E+00
 6.00000E+00    6.88101E-01
 6.50000E+00    4.44736E-01
 7.00000E+00    3.24773E-01
 7.50000E+00    2.61648E-01
 8.00000E+00    2.25133E-01
 8.50000E+00    2.01339E-01
 9.00000E+00    1.83895E-01
 9.50000E+00    1.69897E-01
 1.00000E+01    1.58013E-01
 1.05000E+01    1.47633E-01
 1.10000E+01    1.38249E-01
 1.15000E+01    1.29890E-01
 1.20000E+01    1.22188E-01
 1.25000E+01    1.15244E-01
 1.30000E+01    1.08822E-01
 1.35000E+01    1.03008E-01
 1.40000E+01    9.75901E-02
 1.45000E+01    9.26303E-02
 1.50000E+01    8.80254E-02
 1.55000E+01    8.41976E-02
 1.60000E+01    8.04483E-02
 1.65000E+01    7.64265E-02
 1.70000E+01    7.30170E-02
 1.75000E+01    6.98389E-02
 1.80000E+01    6.71626E-02
 1.85000E+01    6.45062E-02
 1.90000E+01    6.18561E-02
 1.95000E+01    5.91770E-02
 2.00000E+01    5.66636E-02
