# n + Sn122 : (n,xn)    
# jendl.ad   N.Iwamoto                         EVAL-Apr14
# 
# # energies =    98
#   E(MeV)        xs(mb) 
 1.05000E-01    0.00000E+00
 1.10000E-01    1.91906E-04
 1.20000E-01    1.98849E-04
 1.30000E-01    2.05875E-04
 1.40000E-01    2.16416E-04
 1.50000E-01    2.29174E-04
 1.60000E-01    2.41210E-04
 1.70000E-01    2.53589E-04
 1.80000E-01    2.64634E-04
 1.90000E-01    2.74181E-04
 2.00000E-01    2.82362E-04
 2.25000E-01    1.37200E-03
 2.50000E-01    1.61835E-03
 2.75000E-01    1.89133E-03
 3.00000E-01    2.11131E-03
 4.00000E-01    7.58818E-03
 5.00000E-01    1.96084E-02
 6.00000E-01    4.19952E-02
 7.00000E-01    7.96733E-02
 8.00000E-01    1.38787E-01
 9.00000E-01    2.26765E-01
 1.00000E+00    3.52455E-01
 1.10000E+00    5.30832E-01
 1.14995E+00    6.62839E-01
 1.20000E+00    2.45150E+02
 1.30000E+00    4.57435E+02
 1.40000E+00    5.82177E+02
 1.50000E+00    6.97752E+02
 1.60000E+00    7.60100E+02
 1.70000E+00    8.12615E+02
 1.80000E+00    8.59246E+02
 1.90000E+00    9.02020E+02
 2.00000E+00    9.42038E+02
 2.10498E+00    9.66034E+02
 2.15978E+00    9.93514E+02
 2.17163E+00    1.00640E+03
 2.25000E+00    1.10881E+03
 2.26439E+00    1.12254E+03
 2.35038E+00    1.19853E+03
 2.42896E+00    1.26281E+03
 2.43553E+00    1.26758E+03
 2.50000E+00    1.33452E+03
 2.51330E+00    1.34425E+03
 2.55127E+00    1.37861E+03
 2.57656E+00    1.40304E+03
 2.67331E+00    1.47601E+03
 2.67495E+00    1.47705E+03
 2.67898E+00    1.47960E+03
 2.69771E+00    1.49489E+03
 2.71230E+00    1.50710E+03
 2.75000E+00    1.53387E+03
 2.75713E+00    1.53857E+03
 2.77377E+00    1.55323E+03
 2.78848E+00    1.56402E+03
 2.79852E+00    1.57113E+03
 2.86136E+00    1.61878E+03
 2.87910E+00    1.63017E+03
 2.89146E+00    1.63828E+03
 2.90362E+00    1.64680E+03
 2.96933E+00    1.69447E+03
 2.98360E+00    1.70450E+03
 2.99568E+00    1.71259E+03
 2.99799E+00    1.71473E+03
 3.00000E+00    1.72265E+03
 3.50000E+00    1.96409E+03
 4.00000E+00    2.13706E+03
 4.50000E+00    2.24146E+03
 5.00000E+00    2.28109E+03
 5.50000E+00    2.27528E+03
 6.00000E+00    2.24429E+03
 6.50000E+00    2.20276E+03
 7.00000E+00    2.16085E+03
 7.50000E+00    2.12485E+03
 8.00000E+00    2.09749E+03
 8.50000E+00    2.07817E+03
 9.00000E+00    2.08434E+03
 9.50000E+00    2.39470E+03
 1.00000E+01    2.75848E+03
 1.05000E+01    3.05280E+03
 1.10000E+01    3.27155E+03
 1.15000E+01    3.42866E+03
 1.20000E+01    3.52838E+03
 1.25000E+01    3.59537E+03
 1.30000E+01    3.63898E+03
 1.35000E+01    3.66701E+03
 1.40000E+01    3.68582E+03
 1.45000E+01    3.69382E+03
 1.50000E+01    3.69858E+03
 1.55000E+01    3.69573E+03
 1.60000E+01    3.69648E+03
 1.65000E+01    3.70133E+03
 1.70000E+01    3.72265E+03
 1.75000E+01    3.75293E+03
 1.80000E+01    3.80118E+03
 1.85000E+01    3.86745E+03
 1.90000E+01    3.96214E+03
 1.95000E+01    4.07390E+03
 2.00000E+01    4.19745E+03
