# n + Rh101 : (n,xa)    
# jendl.ad   N.Iwamoto                         EVAL-Apr14
# 
# # energies =   107
#   E(MeV)        xs(mb) 
 1.05000E-01    5.47855E-06
 1.10000E-01    5.49640E-06
 1.20000E-01    5.56422E-06
 1.30000E-01    5.65669E-06
 1.40000E-01    5.77147E-06
 1.50000E-01    5.92887E-06
 1.58893E-01    6.07241E-06
 1.60000E-01    6.09028E-06
 1.70000E-01    6.25169E-06
 1.80000E-01    6.43130E-06
 1.83597E-01    6.49680E-06
 1.90000E-01    6.60161E-06
 2.00000E-01    6.76065E-06
 2.25000E-01    7.22631E-06
 2.50000E-01    7.87282E-06
 2.75000E-01    8.58629E-06
 3.00000E-01    9.43188E-06
 3.08473E-01    9.73822E-06
 3.58791E-01    1.00974E-05
 4.00000E-01    1.01270E-05
 4.82839E-01    1.19074E-05
 5.00000E-01    1.22642E-05
 6.00000E-01    1.62054E-05
 7.00000E-01    2.35999E-05
 7.55245E-01    2.97979E-05
 7.55275E-01    2.98016E-05
 8.00000E-01    3.54895E-05
 8.59860E-01    4.58174E-05
 9.00000E-01    5.34676E-05
 9.02330E-01    5.39320E-05
 9.08340E-01    5.51300E-05
 9.14743E-01    5.65097E-05
 9.86766E-01    7.37556E-05
 9.87938E-01    7.40409E-05
 1.00000E+00    7.68353E-05
 1.00636E+00    7.83245E-05
 1.04598E+00    8.76994E-05
 1.06858E+00    9.43472E-05
 1.10000E+00    1.02163E-04
 1.20000E+00    1.37655E-04
 1.30000E+00    1.94147E-04
 1.33346E+00    2.18172E-04
 1.37296E+00    2.52434E-04
 1.39723E+00    2.73298E-04
 1.40000E+00    2.75664E-04
 1.47863E+00    3.61573E-04
 1.48551E+00    3.69667E-04
 1.50000E+00    3.86715E-04
 1.54630E+00    4.48545E-04
 1.55640E+00    4.62785E-04
 1.59266E+00    5.27549E-04
 1.60000E+00    5.40690E-04
 1.62003E+00    5.76001E-04
 1.62054E+00    5.76900E-04
 1.62347E+00    5.82065E-04
 1.62508E+00    5.84904E-04
 1.65639E+00    6.44378E-04
 1.70000E+00    7.52256E-04
 1.71329E+00    7.85689E-04
 1.74729E+00    8.73891E-04
 1.79567E+00    1.03967E-03
 1.79658E+00    1.04288E-03
 1.80000E+00    1.05484E-03
 1.80738E+00    1.08036E-03
 1.83879E+00    1.19260E-03
 1.86142E+00    1.27998E-03
 1.86378E+00    1.28933E-03
 1.90000E+00    1.47569E-03
 2.00000E+00    2.04670E-03
 2.25000E+00    4.22431E-03
 2.50000E+00    7.68686E-03
 2.75000E+00    1.36327E-02
 3.00000E+00    2.66214E-02
 3.50000E+00    6.63029E-02
 4.00000E+00    1.48128E-01
 4.50000E+00    2.97804E-01
 5.00000E+00    5.43631E-01
 5.50000E+00    8.70117E-01
 6.00000E+00    1.34776E+00
 6.50000E+00    1.94513E+00
 7.00000E+00    2.65227E+00
 7.50000E+00    3.45689E+00
 8.00000E+00    4.36080E+00
 8.50000E+00    5.38449E+00
 9.00000E+00    6.55281E+00
 9.50000E+00    7.89974E+00
 1.00000E+01    9.45400E+00
 1.05000E+01    1.11794E+01
 1.10000E+01    1.30800E+01
 1.15000E+01    1.51015E+01
 1.20000E+01    1.72624E+01
 1.25000E+01    1.95128E+01
 1.30000E+01    2.18517E+01
 1.35000E+01    2.42634E+01
 1.40000E+01    2.67339E+01
 1.45000E+01    2.92488E+01
 1.50000E+01    3.17910E+01
 1.55000E+01    3.43426E+01
 1.60000E+01    3.68658E+01
 1.65000E+01    3.92801E+01
 1.70000E+01    4.17016E+01
 1.75000E+01    4.40245E+01
 1.80000E+01    4.61246E+01
 1.85000E+01    4.81348E+01
 1.90000E+01    4.99657E+01
 1.95000E+01    5.17183E+01
 2.00000E+01    5.33892E+01
