# n + Rh101 : (n,xn)    
# jendl.ad   N.Iwamoto                         EVAL-Apr14
# 
# # energies =   107
#   E(MeV)        xs(mb) 
 1.05000E-01    0.00000E+00
 1.10000E-01    4.67488E-05
 1.20000E-01    7.05086E-05
 1.30000E-01    8.31592E-05
 1.40000E-01    9.04478E-05
 1.50000E-01    9.47754E-05
 1.58893E-01    9.71205E-05
 1.60000E-01    1.49303E-01
 1.70000E-01    1.11390E+00
 1.80000E-01    2.20988E+00
 1.83597E-01    2.60682E+00
 1.90000E-01    5.30636E+00
 2.00000E-01    9.57646E+00
 2.25000E-01    1.92958E+01
 2.50000E-01    2.83860E+01
 2.75000E-01    3.75616E+01
 3.00000E-01    4.71098E+01
 3.08473E-01    5.04524E+01
 3.58791E-01    3.65974E+02
 4.00000E-01    6.54723E+02
 4.82839E-01    9.90042E+02
 5.00000E-01    1.04477E+03
 6.00000E-01    1.21561E+03
 7.00000E-01    1.28332E+03
 7.55245E-01    1.30320E+03
 7.55275E-01    1.30321E+03
 8.00000E-01    1.31703E+03
 8.59860E-01    1.33122E+03
 9.00000E-01    1.34399E+03
 9.02330E-01    1.34478E+03
 9.08340E-01    1.34680E+03
 9.14743E-01    1.34903E+03
 9.86766E-01    1.37488E+03
 9.87938E-01    1.37630E+03
 1.00000E+00    1.38518E+03
 1.00636E+00    1.38986E+03
 1.04598E+00    1.43438E+03
 1.06858E+00    1.46208E+03
 1.10000E+00    1.50050E+03
 1.20000E+00    1.59232E+03
 1.30000E+00    1.64616E+03
 1.33346E+00    1.65912E+03
 1.37296E+00    1.67670E+03
 1.39723E+00    1.68630E+03
 1.40000E+00    1.68790E+03
 1.47863E+00    1.71807E+03
 1.48551E+00    1.72109E+03
 1.50000E+00    1.72760E+03
 1.54630E+00    1.74405E+03
 1.55640E+00    1.74777E+03
 1.59266E+00    1.76213E+03
 1.60000E+00    1.76476E+03
 1.62003E+00    1.77161E+03
 1.62054E+00    1.77192E+03
 1.62347E+00    1.77311E+03
 1.62508E+00    1.77374E+03
 1.65639E+00    1.78510E+03
 1.70000E+00    1.79918E+03
 1.71329E+00    1.80280E+03
 1.74729E+00    1.81178E+03
 1.79567E+00    1.82299E+03
 1.79658E+00    1.82329E+03
 1.80000E+00    1.82409E+03
 1.80738E+00    1.82570E+03
 1.83879E+00    1.83217E+03
 1.86142E+00    1.83662E+03
 1.86378E+00    1.83703E+03
 1.90000E+00    1.84341E+03
 2.00000E+00    1.85863E+03
 2.25000E+00    1.89304E+03
 2.50000E+00    1.93267E+03
 2.75000E+00    1.95036E+03
 3.00000E+00    1.96905E+03
 3.50000E+00    1.98551E+03
 4.00000E+00    2.00082E+03
 4.50000E+00    2.01648E+03
 5.00000E+00    2.02755E+03
 5.50000E+00    2.02981E+03
 6.00000E+00    2.02246E+03
 6.50000E+00    2.00787E+03
 7.00000E+00    1.98892E+03
 7.50000E+00    1.96836E+03
 8.00000E+00    1.94796E+03
 8.50000E+00    1.92889E+03
 9.00000E+00    1.91177E+03
 9.50000E+00    1.89697E+03
 1.00000E+01    1.88629E+03
 1.05000E+01    1.97793E+03
 1.10000E+01    2.25812E+03
 1.15000E+01    2.54356E+03
 1.20000E+01    2.76354E+03
 1.25000E+01    2.94487E+03
 1.30000E+01    3.07844E+03
 1.35000E+01    3.17380E+03
 1.40000E+01    3.24054E+03
 1.45000E+01    3.28684E+03
 1.50000E+01    3.31871E+03
 1.55000E+01    3.33871E+03
 1.60000E+01    3.35545E+03
 1.65000E+01    3.36399E+03
 1.70000E+01    3.36629E+03
 1.75000E+01    3.36844E+03
 1.80000E+01    3.36661E+03
 1.85000E+01    3.36509E+03
 1.90000E+01    3.36682E+03
 1.95000E+01    3.38684E+03
 2.00000E+01    3.42927E+03
