# n + Ba130 : (n,xn)    
# jendl.ad   N.Iwamoto                         EVAL-Apr14
# 
# # energies =    98
#   E(MeV)        xs(mb) 
 1.05000E-01    0.00000E+00
 1.10000E-01    1.59821E-03
 1.20000E-01    2.05787E-03
 1.30000E-01    2.34415E-03
 1.40000E-01    2.52578E-03
 1.50000E-01    2.64546E-03
 1.60000E-01    2.73834E-03
 1.70000E-01    2.82053E-03
 1.80000E-01    2.89186E-03
 1.90000E-01    2.95064E-03
 2.00000E-01    3.01374E-03
 2.25000E-01    1.58536E-02
 2.50000E-01    1.94161E-02
 2.75000E-01    2.13656E-02
 3.00000E-01    2.27991E-02
 3.60155E-01    7.29877E-02
 4.00000E-01    4.68573E+02
 5.00000E-01    8.60814E+02
 6.00000E-01    1.05548E+03
 7.00000E-01    1.16663E+03
 8.00000E-01    1.24203E+03
 8.95792E-01    1.28791E+03
 9.00000E-01    1.29260E+03
 9.08852E-01    1.29865E+03
 9.15070E-01    1.30476E+03
 1.00000E+00    1.52601E+03
 1.10000E+00    1.63122E+03
 1.18866E+00    1.69582E+03
 1.20000E+00    1.72627E+03
 1.30000E+00    1.81064E+03
 1.37163E+00    1.84370E+03
 1.40000E+00    1.87218E+03
 1.48900E+00    1.91239E+03
 1.50000E+00    1.91702E+03
 1.55639E+00    1.93488E+03
 1.56964E+00    1.93972E+03
 1.60000E+00    1.97036E+03
 1.60521E+00    1.97325E+03
 1.70000E+00    2.01211E+03
 1.80000E+00    2.03687E+03
 1.85897E+00    2.04584E+03
 1.89759E+00    2.05231E+03
 1.90000E+00    2.05582E+03
 1.93350E+00    2.06811E+03
 1.96312E+00    2.08012E+03
 1.96313E+00    2.08012E+03
 2.00000E+00    2.09293E+03
 2.02820E+00    2.09993E+03
 2.06965E+00    2.10941E+03
 2.09532E+00    2.11789E+03
 2.11747E+00    2.12543E+03
 2.11748E+00    2.12543E+03
 2.18523E+00    2.14053E+03
 2.19985E+00    2.14324E+03
 2.24721E+00    2.15076E+03
 2.25000E+00    2.15220E+03
 2.26563E+00    2.15599E+03
 2.28682E+00    2.16240E+03
 2.29720E+00    2.16605E+03
 2.33599E+00    2.17657E+03
 2.36509E+00    2.18344E+03
 2.50000E+00    2.21553E+03
 2.75000E+00    2.26643E+03
 3.00000E+00    2.32603E+03
 3.50000E+00    2.40160E+03
 4.00000E+00    2.44812E+03
 4.50000E+00    2.47061E+03
 5.00000E+00    2.47737E+03
 5.50000E+00    2.47294E+03
 6.00000E+00    2.46335E+03
 6.50000E+00    2.45127E+03
 7.00000E+00    2.43772E+03
 7.50000E+00    2.42366E+03
 8.00000E+00    2.40864E+03
 8.50000E+00    2.39278E+03
 9.00000E+00    2.37576E+03
 9.50000E+00    2.35811E+03
 1.00000E+01    2.34017E+03
 1.05000E+01    2.32985E+03
 1.10000E+01    2.50549E+03
 1.15000E+01    2.79960E+03
 1.20000E+01    3.08042E+03
 1.25000E+01    3.30664E+03
 1.30000E+01    3.47430E+03
 1.35000E+01    3.58452E+03
 1.40000E+01    3.66980E+03
 1.45000E+01    3.72932E+03
 1.50000E+01    3.77052E+03
 1.55000E+01    3.79952E+03
 1.60000E+01    3.81593E+03
 1.65000E+01    3.82902E+03
 1.70000E+01    3.83431E+03
 1.75000E+01    3.83351E+03
 1.80000E+01    3.83223E+03
 1.85000E+01    3.82840E+03
 1.90000E+01    3.82303E+03
 1.95000E+01    3.82531E+03
 2.00000E+01    3.84135E+03
