# n + Pt193 : (n,xp)    
# jendl.ad   K.Shibata (JAEA)                  EVAL-Jun15
# 
# # energies =    66
#   E(MeV)        xs(mb) 
 1.50563E-01    3.79088E-15
 1.88792E-01    4.95070E-15
 2.00000E-01    5.29150E-15
 2.00040E-01    5.29270E-15
 2.33374E-01    6.31500E-15
 2.71240E-01    7.48950E-15
 3.00000E-01    8.39980E-15
 3.09610E-01    8.71160E-15
 3.32730E-01    9.47950E-15
 3.41777E-01    9.79270E-15
 4.00000E-01    1.21580E-14
 4.27222E-01    1.36900E-14
 4.41345E-01    1.46800E-14
 4.61399E-01    1.64210E-14
 4.93567E-01    2.05830E-14
 4.93808E-01    2.06240E-14
 5.00000E-01    2.16890E-14
 5.22316E-01    2.67030E-14
 5.25261E-01    2.75260E-14
 5.32770E-01    2.97410E-14
 5.46844E-01    3.47330E-14
 5.65943E-01    4.38450E-14
 6.00000E-01    6.98550E-14
 6.02131E-01    7.20720E-14
 6.06454E-01    7.67730E-14
 6.25251E-01    1.02140E-13
 6.33293E-01    1.15290E-13
 6.45356E-01    1.39070E-13
 6.68476E-01    2.00080E-13
 6.95617E-01    3.10370E-13
 7.00000E-01    3.33290E-13
 8.00000E-01    1.64140E-12
 9.00000E-01    7.26990E-12
 1.00000E+00    2.87500E-11
 1.50000E+00    6.90690E-09
 2.00000E+00    3.28440E-07
 2.50000E+00    5.09440E-06
 2.53000E+00    5.76716E-06
 3.00000E+00    3.83089E-05
 3.50000E+00    1.74632E-04
 4.00000E+00    5.49101E-04
 4.50000E+00    1.31387E-03
 4.55000E+00    1.42650E-03
 4.64000E+00    1.62881E-03
 5.00000E+00    2.56114E-03
 5.50000E+00    4.28611E-03
 6.00000E+00    6.53587E-03
 6.50000E+00    9.80779E-03
 7.00000E+00    1.57252E-02
 7.50000E+00    2.79488E-02
 8.00000E+00    5.31606E-02
 8.50000E+00    1.02135E-01
 9.00000E+00    1.90184E-01
 9.50000E+00    3.36733E-01
 1.00000E+01    5.63589E-01
 1.10000E+01    1.34595E+00
 1.20000E+01    2.69778E+00
 1.30000E+01    4.75642E+00
 1.40000E+01    7.64618E+00
 1.45000E+01    9.43153E+00
 1.50000E+01    1.14598E+01
 1.60000E+01    1.62329E+01
 1.70000E+01    2.19365E+01
 1.80000E+01    2.84544E+01
 1.90000E+01    3.56644E+01
 2.00000E+01    4.34166E+01
