# n + Si 28 : (n,xn)    
# jendl4.0   K.Shibata, S.Kunieda              EVAL-AUG07
# 
# # energies =    83
#   E(MeV)        xs(mb) 
 1.84314E+00    0.00000E+00
 1.96000E+00    1.40000E+02
 2.01000E+00    1.42000E+02
 2.06000E+00    2.25000E+02
 2.11000E+00    2.97000E+02
 2.16000E+00    2.00000E+02
 2.20000E+00    3.66000E+02
 2.25000E+00    5.15000E+02
 2.30000E+00    3.15000E+02
 2.35000E+00    5.29000E+02
 2.40000E+00    6.69000E+02
 2.45000E+00    6.66000E+02
 2.51000E+00    5.57000E+02
 2.56000E+00    3.56000E+02
 2.61000E+00    3.10000E+02
 2.66000E+00    3.09000E+02
 2.76000E+00    3.89000E+02
 2.81000E+00    5.06000E+02
 2.86000E+00    7.38000E+02
 2.91000E+00    6.39000E+02
 2.96000E+00    3.95000E+02
 3.01000E+00    2.73000E+02
 3.06000E+00    3.95000E+02
 3.11000E+00    5.21000E+02
 3.16000E+00    5.21000E+02
 3.21000E+00    5.71000E+02
 3.26000E+00    8.29000E+02
 3.31000E+00    7.40000E+02
 3.36000E+00    6.76000E+02
 3.41000E+00    6.66000E+02
 3.46000E+00    5.78000E+02
 3.51000E+00    5.52000E+02
 3.56000E+00    5.44000E+02
 3.61000E+00    4.30000E+02
 3.66000E+00    2.99000E+02
 3.71000E+00    4.71000E+02
 3.76000E+00    7.71000E+02
 3.81000E+00    7.81000E+02
 3.86000E+00    6.32000E+02
 3.91000E+00    6.03000E+02
 3.96000E+00    6.32000E+02
 4.05000E+00    5.72000E+02
 4.15000E+00    5.00378E+02
 4.15000E+00    5.00378E+02
 4.50000E+00    5.18934E+02
 4.78439E+00    5.17406E+02
 5.00000E+00    5.57308E+02
 5.15944E+00    5.56965E+02
 5.50000E+00    5.82928E+02
 6.00000E+00    5.88945E+02
 6.50000E+00    5.50929E+02
 6.50248E+00    5.50612E+02
 6.93265E+00    5.35725E+02
 7.00000E+00    5.37083E+02
 7.12680E+00    5.22950E+02
 7.13603E+00    5.22720E+02
 7.50000E+00    5.35084E+02
 7.64670E+00    5.21925E+02
 7.68368E+00    5.20715E+02
 8.00000E+00    5.28981E+02
 8.08018E+00    5.23253E+02
 8.21953E+00    5.18501E+02
 8.50000E+00    5.20987E+02
 8.55645E+00    5.16369E+02
 8.62867E+00    5.12427E+02
 8.71663E+00    5.09486E+02
 8.85163E+00    5.09373E+02
 8.89835E+00    5.09460E+02
 9.00000E+00    5.13676E+02
 9.13696E+00    5.10144E+02
 9.50000E+00    5.11217E+02
 1.00000E+01    5.02327E+02
 1.10000E+01    4.91975E+02
 1.20000E+01    5.10552E+02
 1.30000E+01    5.28108E+02
 1.40000E+01    5.35929E+02
 1.45000E+01    5.47215E+02
 1.50000E+01    5.71577E+02
 1.60000E+01    6.47001E+02
 1.70000E+01    7.08633E+02
 1.80000E+01    7.56625E+02
 1.90000E+01    7.83970E+02
 2.00000E+01    7.94583E+02
