# n + Dy162 : (n,n'28)  
# jendl4.0   N.Iwamoto,S.Chiba                 EVAL-Nov09
# uncertainties: n
# # energies =    55
#   E(MeV)       xs(mb) 
 1.64740E+00    0.00000E+00
 1.64812E+00    4.57014E+00
 1.67665E+00    2.79210E+01
 1.67948E+00    2.92842E+01
 1.68092E+00    2.99701E+01
 1.69384E+00    3.58028E+01
 1.70000E+00    3.83712E+01
 1.70188E+00    3.91126E+01
 1.73909E+00    5.17652E+01
 1.74983E+00    5.47706E+01
 1.75659E+00    5.65384E+01
 1.76279E+00    5.78343E+01
 1.76575E+00    5.85048E+01
 1.77761E+00    6.11457E+01
 1.80000E+00    6.51721E+01
 1.90000E+00    7.55110E+01
 2.00000E+00    7.66806E+01
 2.25000E+00    6.76640E+01
 2.50000E+00    4.88321E+01
 2.75000E+00    3.59206E+01
 3.00000E+00    2.38826E+01
 3.50000E+00    1.10568E+01
 4.00000E+00    5.07276E+00
 4.50000E+00    2.31462E+00
 5.00000E+00    1.05634E+00
 5.50000E+00    4.87065E-01
 6.00000E+00    2.29172E-01
 6.50000E+00    1.13512E-01
 7.00000E+00    6.16260E-02
 7.50000E+00    3.80813E-02
 8.00000E+00    2.71525E-02
 8.50000E+00    2.17836E-02
 9.00000E+00    1.88536E-02
 9.50000E+00    1.70188E-02
 1.00000E+01    1.57058E-02
 1.05000E+01    1.46701E-02
 1.10000E+01    1.37791E-02
 1.15000E+01    1.30055E-02
 1.20000E+01    1.23034E-02
 1.25000E+01    1.16712E-02
 1.30000E+01    1.10832E-02
 1.35000E+01    1.05455E-02
 1.40000E+01    1.00431E-02
 1.45000E+01    9.58035E-03
 1.50000E+01    9.14741E-03
 1.55000E+01    8.71491E-03
 1.60000E+01    8.34658E-03
 1.65000E+01    8.02009E-03
 1.70000E+01    7.67683E-03
 1.75000E+01    7.34727E-03
 1.80000E+01    7.04517E-03
 1.85000E+01    6.78707E-03
 1.90000E+01    6.54856E-03
 1.95000E+01    6.29072E-03
 2.00000E+01    6.04795E-03
