# n + Dy162 : (n,n'31)  
# jendl4.0   N.Iwamoto,S.Chiba                 EVAL-Nov09
# uncertainties: n
# # energies =    52
#   E(MeV)       xs(mb) 
 1.67948E+00    0.00000E+00
 1.68092E+00    1.60847E+00
 1.69384E+00    5.08931E+00
 1.70000E+00    6.17951E+00
 1.70188E+00    6.49175E+00
 1.73909E+00    1.16646E+01
 1.74983E+00    1.29480E+01
 1.75659E+00    1.36577E+01
 1.76279E+00    1.43223E+01
 1.76575E+00    1.46393E+01
 1.77761E+00    1.59057E+01
 1.80000E+00    1.79806E+01
 1.90000E+00    2.51705E+01
 2.00000E+00    2.92466E+01
 2.25000E+00    3.29649E+01
 2.50000E+00    2.92274E+01
 2.75000E+00    2.50948E+01
 3.00000E+00    1.90134E+01
 3.50000E+00    1.06657E+01
 4.00000E+00    5.63931E+00
 4.50000E+00    2.86485E+00
 5.00000E+00    1.42129E+00
 5.50000E+00    6.98071E-01
 6.00000E+00    3.42719E-01
 6.50000E+00    1.72940E-01
 7.00000E+00    9.30163E-02
 7.50000E+00    5.54903E-02
 8.00000E+00    3.77620E-02
 8.50000E+00    2.90877E-02
 9.00000E+00    2.44917E-02
 9.50000E+00    2.17541E-02
 1.00000E+01    1.98993E-02
 1.05000E+01    1.85012E-02
 1.10000E+01    1.73365E-02
 1.15000E+01    1.63436E-02
 1.20000E+01    1.54523E-02
 1.25000E+01    1.46547E-02
 1.30000E+01    1.39151E-02
 1.35000E+01    1.32401E-02
 1.40000E+01    1.26098E-02
 1.45000E+01    1.20297E-02
 1.50000E+01    1.14869E-02
 1.55000E+01    1.09456E-02
 1.60000E+01    1.04824E-02
 1.65000E+01    1.00739E-02
 1.70000E+01    9.64287E-03
 1.75000E+01    9.22818E-03
 1.80000E+01    8.85127E-03
 1.85000E+01    8.52591E-03
 1.90000E+01    8.22762E-03
 1.95000E+01    7.90439E-03
 2.00000E+01    7.59858E-03
