# n + Dy162 : (n,n'03)  
# jendl4.0   N.Iwamoto,S.Chiba                 EVAL-Nov09
# uncertainties: n
# # energies =    91
#   E(MeV)       xs(mb) 
 5.51937E-01    0.00000E+00
 6.00000E-01    2.03146E-02
 7.00000E-01    1.94642E-01
 8.00000E-01    7.45734E-01
 8.93694E-01    1.85052E+00
 9.00000E-01    1.94553E+00
 9.27019E-01    2.40852E+00
 9.68938E-01    3.23386E+00
 1.00000E+00    3.84201E+00
 1.06760E+00    5.56955E+00
 1.10000E+00    6.16264E+00
 1.15538E+00    7.68523E+00
 1.19013E+00    8.68462E+00
 1.20000E+00    8.83713E+00
 1.21763E+00    9.37361E+00
 1.28372E+00    1.12732E+01
 1.30000E+00    1.18282E+01
 1.30509E+00    1.20059E+01
 1.33271E+00    1.28014E+01
 1.36639E+00    1.38882E+01
 1.38365E+00    1.43033E+01
 1.39917E+00    1.47668E+01
 1.40000E+00    1.47804E+01
 1.40898E+00    1.50274E+01
 1.46252E+00    1.66458E+01
 1.49492E+00    1.76290E+01
 1.49967E+00    1.77567E+01
 1.50000E+00    1.77659E+01
 1.52789E+00    1.87110E+01
 1.53966E+00    1.90847E+01
 1.54523E+00    1.92528E+01
 1.58070E+00    2.00531E+01
 1.58410E+00    2.00780E+01
 1.58544E+00    2.00520E+01
 1.60000E+00    2.02454E+01
 1.64460E+00    2.12551E+01
 1.64740E+00    2.12797E+01
 1.64812E+00    2.12923E+01
 1.67665E+00    2.19410E+01
 1.67948E+00    2.20122E+01
 1.68092E+00    2.20200E+01
 1.69384E+00    2.22919E+01
 1.70000E+00    2.24370E+01
 1.70188E+00    2.24822E+01
 1.73909E+00    2.33788E+01
 1.74983E+00    2.36376E+01
 1.75659E+00    2.37219E+01
 1.76279E+00    2.38274E+01
 1.76575E+00    2.38813E+01
 1.77761E+00    2.41152E+01
 1.80000E+00    2.44770E+01
 1.90000E+00    2.62307E+01
 2.00000E+00    2.75947E+01
 2.25000E+00    2.98462E+01
 2.50000E+00    3.00165E+01
 2.75000E+00    2.95545E+01
 3.00000E+00    2.84320E+01
 3.50000E+00    2.56629E+01
 4.00000E+00    2.30703E+01
 4.50000E+00    2.13149E+01
 5.00000E+00    2.03787E+01
 5.50000E+00    1.98752E+01
 6.00000E+00    1.94182E+01
 6.50000E+00    1.88205E+01
 7.00000E+00    1.80693E+01
 7.50000E+00    1.72207E+01
 8.00000E+00    1.63244E+01
 8.50000E+00    1.54137E+01
 9.00000E+00    1.45182E+01
 9.50000E+00    1.36662E+01
 1.00000E+01    1.28810E+01
 1.05000E+01    1.22122E+01
 1.10000E+01    1.15436E+01
 1.15000E+01    1.10104E+01
 1.20000E+01    1.04771E+01
 1.25000E+01    1.00346E+01
 1.30000E+01    9.59215E+00
 1.35000E+01    9.20822E+00
 1.40000E+01    8.82429E+00
 1.45000E+01    8.48198E+00
 1.50000E+01    8.13967E+00
 1.55000E+01    7.82902E+00
 1.60000E+01    7.51836E+00
 1.65000E+01    7.23263E+00
 1.70000E+01    6.94690E+00
 1.75000E+01    6.68162E+00
 1.80000E+01    6.41633E+00
 1.85000E+01    6.16988E+00
 1.90000E+01    5.92343E+00
 1.95000E+01    5.69687E+00
 2.00000E+01    5.47032E+00
