# n + Dy162 : (n,n'25)  
# jendl4.0   N.Iwamoto,S.Chiba                 EVAL-Nov09
# uncertainties: n
# # energies =    59
#   E(MeV)       xs(mb) 
 1.58410E+00    0.00000E+00
 1.58544E+00    6.27640E-01
 1.60000E+00    2.57405E+00
 1.64460E+00    7.53305E+00
 1.64740E+00    7.83183E+00
 1.64812E+00    7.91145E+00
 1.67665E+00    1.10725E+01
 1.67948E+00    1.13883E+01
 1.68092E+00    1.15201E+01
 1.69384E+00    1.28494E+01
 1.70000E+00    1.34885E+01
 1.70188E+00    1.36837E+01
 1.73909E+00    1.72806E+01
 1.74983E+00    1.82753E+01
 1.75659E+00    1.87835E+01
 1.76279E+00    1.93089E+01
 1.76575E+00    1.95649E+01
 1.77761E+00    2.06074E+01
 1.80000E+00    2.21705E+01
 1.90000E+00    2.86050E+01
 2.00000E+00    3.27956E+01
 2.25000E+00    3.75408E+01
 2.50000E+00    3.34978E+01
 2.75000E+00    2.85501E+01
 3.00000E+00    2.13618E+01
 3.50000E+00    1.17528E+01
 4.00000E+00    6.10388E+00
 4.50000E+00    3.06029E+00
 5.00000E+00    1.50140E+00
 5.50000E+00    7.28634E-01
 6.00000E+00    3.53477E-01
 6.50000E+00    1.76577E-01
 7.00000E+00    9.42396E-02
 7.50000E+00    5.59033E-02
 8.00000E+00    3.78951E-02
 8.50000E+00    2.91167E-02
 9.00000E+00    2.44769E-02
 9.50000E+00    2.17174E-02
 1.00000E+01    1.98502E-02
 1.05000E+01    1.84443E-02
 1.10000E+01    1.72744E-02
 1.15000E+01    1.62778E-02
 1.20000E+01    1.53841E-02
 1.25000E+01    1.45844E-02
 1.30000E+01    1.38440E-02
 1.35000E+01    1.31682E-02
 1.40000E+01    1.25380E-02
 1.45000E+01    1.19580E-02
 1.50000E+01    1.14157E-02
 1.55000E+01    1.08747E-02
 1.60000E+01    1.04130E-02
 1.65000E+01    1.00042E-02
 1.70000E+01    9.57586E-03
 1.75000E+01    9.16114E-03
 1.80000E+01    8.78693E-03
 1.85000E+01    8.46198E-03
 1.90000E+01    8.16329E-03
 1.95000E+01    7.84377E-03
 2.00000E+01    7.53828E-03
