# n + Dy162 : (n,n'33)  
# jendl4.0   N.Iwamoto,S.Chiba                 EVAL-Nov09
# uncertainties: n
# # energies =    50
#   E(MeV)       xs(mb) 
 1.69384E+00    0.00000E+00
 1.70000E+00    3.73759E-04
 1.70188E+00    4.67964E-04
 1.73909E+00    3.39366E-03
 1.74983E+00    4.63987E-03
 1.75659E+00    5.51896E-03
 1.76279E+00    6.39915E-03
 1.76575E+00    6.80546E-03
 1.77761E+00    8.65547E-03
 1.80000E+00    1.29390E-02
 1.90000E+00    4.57860E-02
 2.00000E+00    1.04768E-01
 2.25000E+00    3.75581E-01
 2.50000E+00    7.05259E-01
 2.75000E+00    1.04277E+00
 3.00000E+00    1.37416E+00
 3.50000E+00    1.41568E+00
 4.00000E+00    1.15971E+00
 4.50000E+00    8.35902E-01
 5.00000E+00    5.72692E-01
 5.50000E+00    3.92997E-01
 6.00000E+00    2.79650E-01
 6.50000E+00    2.11825E-01
 7.00000E+00    1.71582E-01
 7.50000E+00    1.46915E-01
 8.00000E+00    1.30811E-01
 8.50000E+00    1.19354E-01
 9.00000E+00    1.10464E-01
 9.50000E+00    1.03086E-01
 1.00000E+01    9.66942E-02
 1.05000E+01    9.10497E-02
 1.10000E+01    8.58741E-02
 1.15000E+01    8.12283E-02
 1.20000E+01    7.69357E-02
 1.25000E+01    7.30350E-02
 1.30000E+01    6.93860E-02
 1.35000E+01    6.60411E-02
 1.40000E+01    6.29093E-02
 1.45000E+01    6.00228E-02
 1.50000E+01    5.73194E-02
 1.55000E+01    5.46153E-02
 1.60000E+01    5.23120E-02
 1.65000E+01    5.02702E-02
 1.70000E+01    4.81266E-02
 1.75000E+01    4.60541E-02
 1.80000E+01    4.41799E-02
 1.85000E+01    4.25537E-02
 1.90000E+01    4.10627E-02
 1.95000E+01    3.94559E-02
 2.00000E+01    3.79278E-02
