# n + Dy162 : (n,n'29)  
# jendl4.0   N.Iwamoto,S.Chiba                 EVAL-Nov09
# uncertainties: n
# # energies =    54
#   E(MeV)       xs(mb) 
 1.64812E+00    0.00000E+00
 1.67665E+00    1.79200E-03
 1.67948E+00    2.02528E-03
 1.68092E+00    2.14846E-03
 1.69384E+00    3.40892E-03
 1.70000E+00    4.08684E-03
 1.70188E+00    4.30447E-03
 1.73909E+00    9.91791E-03
 1.74983E+00    1.20344E-02
 1.75659E+00    1.34757E-02
 1.76279E+00    1.48902E-02
 1.76575E+00    1.55242E-02
 1.77761E+00    1.84455E-02
 1.80000E+00    2.48291E-02
 1.90000E+00    6.97835E-02
 2.00000E+00    1.43291E-01
 2.25000E+00    4.52771E-01
 2.50000E+00    7.96856E-01
 2.75000E+00    1.13812E+00
 3.00000E+00    1.51973E+00
 3.50000E+00    1.53775E+00
 4.00000E+00    1.25593E+00
 4.50000E+00    9.14678E-01
 5.00000E+00    6.40701E-01
 5.50000E+00    4.53745E-01
 6.00000E+00    3.34996E-01
 6.50000E+00    2.62821E-01
 7.00000E+00    2.18854E-01
 7.50000E+00    1.90892E-01
 8.00000E+00    1.71826E-01
 8.50000E+00    1.57694E-01
 9.00000E+00    1.46381E-01
 9.50000E+00    1.36798E-01
 1.00000E+01    1.28397E-01
 1.05000E+01    1.20924E-01
 1.10000E+01    1.14048E-01
 1.15000E+01    1.07867E-01
 1.20000E+01    1.02152E-01
 1.25000E+01    9.69560E-02
 1.30000E+01    9.20975E-02
 1.35000E+01    8.76430E-02
 1.40000E+01    8.34746E-02
 1.45000E+01    7.96325E-02
 1.50000E+01    7.60360E-02
 1.55000E+01    7.24424E-02
 1.60000E+01    6.93810E-02
 1.65000E+01    6.66679E-02
 1.70000E+01    6.38144E-02
 1.75000E+01    6.10755E-02
 1.80000E+01    5.85641E-02
 1.85000E+01    5.64185E-02
 1.90000E+01    5.44363E-02
 1.95000E+01    5.22928E-02
 2.00000E+01    5.02746E-02
