# n + Dy162 : (n,h)     
# jendl4.0   N.Iwamoto,S.Chiba                 EVAL-Nov09
# uncertainties: n
# # energies =    50
#   E(MeV)       xs(mb) 
 7.14229E+00    0.00000E+00
 7.21802E+00    3.79990E-35
 7.39236E+00    1.62390E-34
 7.66025E+00    3.53540E-34
 8.01560E+00    7.75050E-34
 8.06098E+00    1.07150E-33
 8.09419E+00    1.41030E-33
 8.13685E+00    1.91930E-33
 8.16462E+00    2.26340E-33
 8.20642E+00    2.79200E-33
 8.21938E+00    2.95680E-33
 8.29722E+00    3.95080E-33
 8.34241E+00    4.52810E-33
 8.37420E+00    4.93410E-33
 8.41122E+00    5.40700E-33
 8.44043E+00    5.78020E-33
 8.44594E+00    5.85060E-33
 8.45110E+00    5.91650E-33
 8.47628E+00    6.23810E-33
 8.48170E+00    6.30740E-33
 8.50180E+00    6.56410E-33
 8.52793E+00    7.11190E-33
 8.53045E+00    7.17520E-33
 8.53958E+00    7.41380E-33
 8.54377E+00    7.53620E-33
 8.57905E+00    8.66280E-33
 8.58723E+00    8.93420E-33
 8.61169E+00    9.76690E-33
 9.50000E+00    4.04630E-32
 1.00000E+01    1.98900E-28
 1.05000E+01    1.13460E-24
 1.10000E+01    8.50400E-22
 1.15000E+01    1.53760E-19
 1.20000E+01    9.71220E-18
 1.25000E+01    2.77830E-16
 1.30000E+01    4.26740E-15
 1.35000E+01    4.03440E-14
 1.40000E+01    2.60070E-13
 1.45000E+01    1.31320E-12
 1.50000E+01    6.71760E-12
 1.55000E+01    4.04190E-11
 1.60000E+01    2.86970E-10
 1.65000E+01    2.33640E-09
 1.70000E+01    1.10170E-08
 1.75000E+01    5.21470E-08
 1.80000E+01    1.89570E-07
 1.85000E+01    6.73520E-07
 1.90000E+01    1.92328E-06
 1.95000E+01    4.65458E-06
 2.00000E+01    1.11486E-05
