# n + Dy162 : (n,n'06)  
# jendl4.0   N.Iwamoto,S.Chiba                 EVAL-Nov09
# uncertainties: n
# # energies =    84
#   E(MeV)       xs(mb) 
 9.68938E-01    0.00000E+00
 1.00000E+00    6.19469E+01
 1.06760E+00    1.17831E+02
 1.10000E+00    1.38179E+02
 1.15538E+00    1.67134E+02
 1.19013E+00    1.77830E+02
 1.20000E+00    1.81038E+02
 1.21763E+00    1.86579E+02
 1.28372E+00    2.00207E+02
 1.30000E+00    2.01668E+02
 1.30509E+00    2.02435E+02
 1.33271E+00    2.05183E+02
 1.36639E+00    2.09868E+02
 1.38365E+00    2.09972E+02
 1.39917E+00    2.10949E+02
 1.40000E+00    2.11005E+02
 1.40898E+00    2.11642E+02
 1.46252E+00    2.15089E+02
 1.49492E+00    2.13732E+02
 1.49967E+00    2.13794E+02
 1.50000E+00    2.13799E+02
 1.52789E+00    2.14103E+02
 1.53966E+00    2.14319E+02
 1.54523E+00    2.14437E+02
 1.58070E+00    2.14641E+02
 1.58410E+00    2.14044E+02
 1.58544E+00    2.13897E+02
 1.60000E+00    2.13092E+02
 1.64460E+00    2.11794E+02
 1.64740E+00    2.11706E+02
 1.64812E+00    2.11493E+02
 1.67665E+00    2.09645E+02
 1.67948E+00    2.09285E+02
 1.68092E+00    2.08995E+02
 1.69384E+00    2.07696E+02
 1.70000E+00    2.07195E+02
 1.70188E+00    2.07048E+02
 1.73909E+00    2.02835E+02
 1.74983E+00    2.00694E+02
 1.75659E+00    1.99321E+02
 1.76279E+00    1.97889E+02
 1.76575E+00    1.97380E+02
 1.77761E+00    1.95434E+02
 1.80000E+00    1.91417E+02
 1.90000E+00    1.75134E+02
 2.00000E+00    1.56972E+02
 2.25000E+00    1.18351E+02
 2.50000E+00    8.03414E+01
 2.75000E+00    5.70244E+01
 3.00000E+00    3.83700E+01
 3.50000E+00    1.83266E+01
 4.00000E+00    8.76829E+00
 4.50000E+00    4.20932E+00
 5.00000E+00    2.05112E+00
 5.50000E+00    1.04364E+00
 6.00000E+00    5.74808E-01
 6.50000E+00    3.57039E-01
 7.00000E+00    2.52825E-01
 7.50000E+00    1.99916E-01
 8.00000E+00    1.70536E-01
 8.50000E+00    1.52108E-01
 9.00000E+00    1.38964E-01
 9.50000E+00    1.28594E-01
 1.00000E+01    1.19869E-01
 1.05000E+01    1.12295E-01
 1.10000E+01    1.05441E-01
 1.15000E+01    9.93414E-02
 1.20000E+01    9.37377E-02
 1.25000E+01    8.86884E-02
 1.30000E+01    8.39913E-02
 1.35000E+01    7.97135E-02
 1.40000E+01    7.57278E-02
 1.45000E+01    7.20751E-02
 1.50000E+01    6.86685E-02
 1.55000E+01    6.53047E-02
 1.60000E+01    6.28392E-02
 1.65000E+01    6.07062E-02
 1.70000E+01    5.71959E-02
 1.75000E+01    5.46672E-02
 1.80000E+01    5.28200E-02
 1.85000E+01    5.16524E-02
 1.90000E+01    4.88876E-02
 1.95000E+01    4.65231E-02
 2.00000E+01    4.46913E-02
