# n + Dy162 : (n,n'13)  
# jendl4.0   N.Iwamoto,S.Chiba                 EVAL-Nov09
# uncertainties: n
# # energies =    73
#   E(MeV)       xs(mb) 
 1.33271E+00    0.00000E+00
 1.36639E+00    5.05202E-02
 1.38365E+00    8.95832E-02
 1.39917E+00    1.30963E-01
 1.40000E+00    1.31907E-01
 1.40898E+00    1.55443E-01
 1.46252E+00    3.44335E-01
 1.49492E+00    4.92403E-01
 1.49967E+00    5.10393E-01
 1.50000E+00    5.11802E-01
 1.52789E+00    6.58157E-01
 1.53966E+00    7.15899E-01
 1.54523E+00    7.41127E-01
 1.58070E+00    9.38340E-01
 1.58410E+00    9.59230E-01
 1.58544E+00    9.64604E-01
 1.60000E+00    1.04508E+00
 1.64460E+00    1.35556E+00
 1.64740E+00    1.37194E+00
 1.64812E+00    1.37681E+00
 1.67665E+00    1.59041E+00
 1.67948E+00    1.61322E+00
 1.68092E+00    1.62323E+00
 1.69384E+00    1.72682E+00
 1.70000E+00    1.77865E+00
 1.70188E+00    1.79472E+00
 1.73909E+00    2.13068E+00
 1.74983E+00    2.23085E+00
 1.75659E+00    2.29205E+00
 1.76279E+00    2.35081E+00
 1.76575E+00    2.37894E+00
 1.77761E+00    2.49541E+00
 1.80000E+00    2.71886E+00
 1.90000E+00    3.76217E+00
 2.00000E+00    4.77504E+00
 2.25000E+00    6.96282E+00
 2.50000E+00    7.48661E+00
 2.75000E+00    7.44681E+00
 3.00000E+00    6.74731E+00
 3.50000E+00    4.77505E+00
 4.00000E+00    3.05160E+00
 4.50000E+00    1.86736E+00
 5.00000E+00    1.14315E+00
 5.50000E+00    7.28611E-01
 6.00000E+00    4.98957E-01
 6.50000E+00    3.73513E-01
 7.00000E+00    3.02981E-01
 7.50000E+00    2.60653E-01
 8.00000E+00    2.32915E-01
 8.50000E+00    2.12856E-01
 9.00000E+00    1.97019E-01
 9.50000E+00    1.83712E-01
 1.00000E+01    1.72107E-01
 1.05000E+01    1.61830E-01
 1.10000E+01    1.52408E-01
 1.15000E+01    1.43959E-01
 1.20000E+01    1.36159E-01
 1.25000E+01    1.29078E-01
 1.30000E+01    1.22470E-01
 1.35000E+01    1.16422E-01
 1.40000E+01    1.10776E-01
 1.45000E+01    1.05580E-01
 1.50000E+01    1.00726E-01
 1.55000E+01    9.58825E-02
 1.60000E+01    9.17619E-02
 1.65000E+01    8.81338E-02
 1.70000E+01    8.42894E-02
 1.75000E+01    8.06109E-02
 1.80000E+01    7.72867E-02
 1.85000E+01    7.43861E-02
 1.90000E+01    7.17299E-02
 1.95000E+01    6.88927E-02
 2.00000E+01    6.61936E-02
