# n + Dy162 : (n,n'02)  
# jendl4.0   N.Iwamoto,S.Chiba                 EVAL-Nov09
# uncertainties: n
# # energies =    96
#   E(MeV)       xs(mb) 
 2.67319E-01    0.00000E+00
 2.75000E-01    6.36106E-01
 3.00000E-01    3.48279E+00
 4.00000E-01    2.29845E+01
 5.00000E-01    5.82752E+01
 5.51937E-01    8.28617E+01
 6.00000E-01    1.07801E+02
 7.00000E-01    1.67394E+02
 8.00000E-01    2.32694E+02
 8.93694E-01    2.95406E+02
 9.00000E-01    2.92018E+02
 9.27019E-01    3.01363E+02
 9.68938E-01    3.20425E+02
 1.00000E+00    3.24087E+02
 1.06760E+00    3.44285E+02
 1.10000E+00    3.51468E+02
 1.15538E+00    3.65871E+02
 1.19013E+00    3.69611E+02
 1.20000E+00    3.70457E+02
 1.21763E+00    3.71859E+02
 1.28372E+00    3.67852E+02
 1.30000E+00    3.66078E+02
 1.30509E+00    3.65815E+02
 1.33271E+00    3.61847E+02
 1.36639E+00    3.59726E+02
 1.38365E+00    3.56544E+02
 1.39917E+00    3.55110E+02
 1.40000E+00    3.55032E+02
 1.40898E+00    3.54309E+02
 1.46252E+00    3.51207E+02
 1.49492E+00    3.44722E+02
 1.49967E+00    3.44179E+02
 1.50000E+00    3.44144E+02
 1.52789E+00    3.39806E+02
 1.53966E+00    3.38144E+02
 1.54523E+00    3.37382E+02
 1.58070E+00    3.32139E+02
 1.58410E+00    3.31029E+02
 1.58544E+00    3.30618E+02
 1.60000E+00    3.27779E+02
 1.64460E+00    3.21180E+02
 1.64740E+00    3.20716E+02
 1.64812E+00    3.20441E+02
 1.67665E+00    3.15816E+02
 1.67948E+00    3.15399E+02
 1.68092E+00    3.14971E+02
 1.69384E+00    3.12784E+02
 1.70000E+00    3.11874E+02
 1.70188E+00    3.11604E+02
 1.73909E+00    3.05505E+02
 1.74983E+00    3.02721E+02
 1.75659E+00    3.00930E+02
 1.76279E+00    2.99301E+02
 1.76575E+00    2.98663E+02
 1.77761E+00    2.96037E+02
 1.80000E+00    2.90744E+02
 1.90000E+00    2.70911E+02
 2.00000E+00    2.52924E+02
 2.25000E+00    2.13537E+02
 2.50000E+00    1.77320E+02
 2.75000E+00    1.54925E+02
 3.00000E+00    1.35330E+02
 3.50000E+00    1.14522E+02
 4.00000E+00    1.04101E+02
 4.50000E+00    9.83251E+01
 5.00000E+00    9.46498E+01
 5.50000E+00    9.18886E+01
 6.00000E+00    8.93977E+01
 6.50000E+00    8.68099E+01
 7.00000E+00    8.39526E+01
 7.50000E+00    8.08322E+01
 8.00000E+00    7.75689E+01
 8.50000E+00    7.43094E+01
 9.00000E+00    7.11629E+01
 9.50000E+00    6.81817E+01
 1.00000E+01    6.53803E+01
 1.05000E+01    6.28387E+01
 1.10000E+01    6.02972E+01
 1.15000E+01    5.80619E+01
 1.20000E+01    5.58266E+01
 1.25000E+01    5.38397E+01
 1.30000E+01    5.18528E+01
 1.35000E+01    5.00741E+01
 1.40000E+01    4.82954E+01
 1.45000E+01    4.67086E+01
 1.50000E+01    4.51217E+01
 1.55000E+01    4.37087E+01
 1.60000E+01    4.22956E+01
 1.65000E+01    4.10259E+01
 1.70000E+01    3.97562E+01
 1.75000E+01    3.85928E+01
 1.80000E+01    3.74293E+01
 1.85000E+01    3.63413E+01
 1.90000E+01    3.52533E+01
 1.95000E+01    3.42231E+01
 2.00000E+01    3.31929E+01
