# n + Dy162 : (n,g)     
# jendl4.0   N.Iwamoto,S.Chiba                 EVAL-Nov09
# uncertainties: n
# # energies =    69
#   E(MeV)       xs(mb) 
 1.00000E-10    1.34130E+06
 5.00000E-09    3.66054E+05
 1.00000E-08    2.77745E+05
 1.50000E-08    2.33781E+05
 2.00000E-08    2.06056E+05
 2.50000E-08    1.86499E+05
 3.00000E-08    1.71744E+05
 3.50000E-08    1.58242E+05
 4.20000E-08    1.45131E+05
 5.00000E-08    1.34256E+05
 5.80000E-08    1.25165E+05
 6.70000E-08    1.15964E+05
 8.00000E-08    1.05556E+05
 1.00000E-07    9.28099E+04
 1.40000E-07    8.12845E+04
 1.80000E-07    7.36727E+04
 2.20000E-07    6.87523E+04
 2.50000E-07    6.54627E+04
 2.80000E-07    6.31400E+04
 3.00000E-07    6.15326E+04
 3.20000E-07    5.97722E+04
 3.50000E-07    5.73996E+04
 4.00000E-07    5.40358E+04
 5.00000E-07    5.05222E+04
 6.25000E-07    4.78444E+04
 7.80000E-07    4.64777E+04
 8.50000E-07    4.59815E+04
 9.10000E-07    4.57016E+04
 9.50000E-07    4.55689E+04
 9.72000E-07    4.54909E+04
 9.96000E-07    4.54237E+04
 1.02000E-06    4.53732E+04
 1.04500E-06    4.53386E+04
 1.07100E-06    4.53155E+04
 1.09700E-06    4.53125E+04
 1.12300E-06    4.53289E+04
 1.15000E-06    4.54951E+04
 1.30000E-06    4.62639E+04
 1.50000E-06    5.01688E+04
 2.10000E-06    6.07094E+04
 2.60000E-06    8.36492E+04
 3.30000E-06    1.47272E+05
 4.00000E-06    2.77627E+06
 9.87700E-06    6.24162E+03
 1.59680E-05    1.27808E+03
 2.77000E-05    7.85194E+02
 4.80520E-05    1.69523E+05
 7.55014E-05    5.58251E+03
 1.48728E-04    1.15201E+04
 3.67262E-04    7.62225E+03
 9.06898E-04    2.72091E+03
 1.42510E-03    2.40139E+03
 2.23945E-03    1.94504E+03
 3.51910E-03    1.01287E+03
 5.53000E-03    9.23183E+02
 9.11800E-03    7.30588E+02
 1.50300E-02    5.84437E+02
 2.47800E-02    4.60046E+02
 4.08500E-02    3.62964E+02
 6.73400E-02    2.67477E+02
 1.11000E-01    1.61693E+02
 1.83000E-01    1.19286E+02
 3.02000E-01    1.00480E+02
 5.00000E-01    9.84496E+01
 8.21000E-01    1.00345E+02
 1.35300E+00    7.02138E+01
 2.23100E+00    2.96695E+01
 3.67900E+00    6.78621E+00
 6.06500E+00    1.04078E+00
