# n + Dy162 : (n,xn)    
# jendl4.0   N.Iwamoto,S.Chiba                 EVAL-Nov09
# 
# # energies =   114
#   E(MeV)        xs(mb) 
 8.11634E-02    0.00000E+00
 9.00000E-02    9.55443E+01
 1.00000E-01    1.84597E+02
 1.05000E-01    2.24695E+02
 1.10000E-01    2.64794E+02
 1.20000E-01    3.35080E+02
 1.30000E-01    3.98968E+02
 1.40000E-01    4.56047E+02
 1.50000E-01    5.08651E+02
 1.60000E-01    5.57314E+02
 1.70000E-01    6.02344E+02
 1.80000E-01    6.45310E+02
 1.90000E-01    6.84949E+02
 2.00000E-01    7.23043E+02
 2.25000E-01    8.06335E+02
 2.50000E-01    8.81169E+02
 2.67319E-01    9.30504E+02
 2.75000E-01    9.52213E+02
 3.00000E-01    1.01578E+03
 4.00000E-01    1.22800E+03
 5.00000E-01    1.39923E+03
 5.51937E-01    1.47863E+03
 6.00000E-01    1.54702E+03
 7.00000E-01    1.67752E+03
 8.00000E-01    1.79220E+03
 8.93693E-01    1.88530E+03
 8.93694E-01    1.88531E+03
 9.00000E-01    1.91416E+03
 9.27019E-01    1.96808E+03
 9.68938E-01    2.03607E+03
 1.00000E+00    2.10008E+03
 1.06760E+00    2.19357E+03
 1.10000E+00    2.23195E+03
 1.15538E+00    2.28878E+03
 1.19013E+00    2.34438E+03
 1.20000E+00    2.35708E+03
 1.21763E+00    2.37662E+03
 1.28372E+00    2.45157E+03
 1.30000E+00    2.48619E+03
 1.30509E+00    2.49342E+03
 1.33271E+00    2.53030E+03
 1.36639E+00    2.56833E+03
 1.38365E+00    2.58773E+03
 1.39917E+00    2.60404E+03
 1.40000E+00    2.60488E+03
 1.40898E+00    2.61385E+03
 1.46252E+00    2.67243E+03
 1.49492E+00    2.70920E+03
 1.49967E+00    2.71352E+03
 1.50000E+00    2.71381E+03
 1.52789E+00    2.73289E+03
 1.53966E+00    2.74021E+03
 1.54523E+00    2.74351E+03
 1.58070E+00    2.76315E+03
 1.58410E+00    2.76533E+03
 1.58543E+00    2.76609E+03
 1.58544E+00    2.76609E+03
 1.60000E+00    2.77421E+03
 1.64460E+00    2.79544E+03
 1.64740E+00    2.79670E+03
 1.64812E+00    2.79819E+03
 1.67665E+00    2.81566E+03
 1.67948E+00    2.81822E+03
 1.68092E+00    2.81931E+03
 1.69384E+00    2.82735E+03
 1.70000E+00    2.83070E+03
 1.70188E+00    2.83168E+03
 1.73909E+00    2.85281E+03
 1.74983E+00    2.86030E+03
 1.75659E+00    2.86444E+03
 1.76279E+00    2.86983E+03
 1.76575E+00    2.87179E+03
 1.77761E+00    2.87889E+03
 1.80000E+00    2.89175E+03
 1.90000E+00    2.94079E+03
 2.00000E+00    2.98389E+03
 2.25000E+00    3.02756E+03
 2.50000E+00    3.07318E+03
 2.75000E+00    3.07825E+03
 3.00000E+00    3.09444E+03
 3.50000E+00    3.09668E+03
 4.00000E+00    3.08410E+03
 4.50000E+00    3.05774E+03
 5.00000E+00    3.02531E+03
 5.50000E+00    2.99209E+03
 6.00000E+00    2.95990E+03
 6.50000E+00    2.92902E+03
 7.00000E+00    2.89944E+03
 7.50000E+00    2.87119E+03
 8.00000E+00    2.84411E+03
 8.50000E+00    2.88166E+03
 9.00000E+00    3.32483E+03
 9.50000E+00    3.82335E+03
 1.00000E+01    4.19163E+03
 1.05000E+01    4.42564E+03
 1.10000E+01    4.56077E+03
 1.15000E+01    4.64266E+03
 1.20000E+01    4.68310E+03
 1.25000E+01    4.71020E+03
 1.30000E+01    4.72137E+03
 1.35000E+01    4.72713E+03
 1.40000E+01    4.72512E+03
 1.45000E+01    4.72158E+03
 1.50000E+01    4.71398E+03
 1.55000E+01    4.71392E+03
 1.60000E+01    4.75044E+03
 1.65000E+01    4.84856E+03
 1.70000E+01    4.99342E+03
 1.75000E+01    5.16215E+03
 1.80000E+01    5.33684E+03
 1.85000E+01    5.50337E+03
 1.90000E+01    5.65220E+03
 1.95000E+01    5.78751E+03
 2.00000E+01    5.89785E+03
