# n + Dy162 : (n,n'09)  
# jendl4.0   N.Iwamoto,S.Chiba                 EVAL-Nov09
# uncertainties: n
# # energies =    79
#   E(MeV)       xs(mb) 
 1.19013E+00    0.00000E+00
 1.20000E+00    1.29199E+00
 1.21763E+00    2.63692E+00
 1.28372E+00    7.48407E+00
 1.30000E+00    8.70893E+00
 1.30509E+00    9.09111E+00
 1.33271E+00    1.07963E+01
 1.36639E+00    1.30282E+01
 1.38365E+00    1.39473E+01
 1.39917E+00    1.48646E+01
 1.40000E+00    1.49059E+01
 1.40898E+00    1.54057E+01
 1.46252E+00    1.85488E+01
 1.49492E+00    2.04070E+01
 1.49967E+00    2.06471E+01
 1.50000E+00    2.06640E+01
 1.52789E+00    2.20862E+01
 1.53966E+00    2.26720E+01
 1.54523E+00    2.29445E+01
 1.58070E+00    2.45075E+01
 1.58410E+00    2.45401E+01
 1.58544E+00    2.45461E+01
 1.60000E+00    2.49389E+01
 1.64460E+00    2.64503E+01
 1.64740E+00    2.65129E+01
 1.64812E+00    2.65323E+01
 1.67665E+00    2.74852E+01
 1.67948E+00    2.75866E+01
 1.68092E+00    2.75698E+01
 1.69384E+00    2.78870E+01
 1.70000E+00    2.80480E+01
 1.70188E+00    2.80987E+01
 1.73909E+00    2.91406E+01
 1.74983E+00    2.93601E+01
 1.75659E+00    2.94173E+01
 1.76279E+00    2.95406E+01
 1.76575E+00    2.96047E+01
 1.77761E+00    2.98901E+01
 1.80000E+00    3.02457E+01
 1.90000E+00    3.17181E+01
 2.00000E+00    3.20803E+01
 2.25000E+00    3.06711E+01
 2.50000E+00    2.49644E+01
 2.75000E+00    2.06928E+01
 3.00000E+00    1.57676E+01
 3.50000E+00    9.20388E+00
 4.00000E+00    5.12014E+00
 4.50000E+00    2.77630E+00
 5.00000E+00    1.50515E+00
 5.50000E+00    8.44287E-01
 6.00000E+00    5.08276E-01
 6.50000E+00    3.39631E-01
 7.00000E+00    2.53211E-01
 7.50000E+00    2.06492E-01
 8.00000E+00    1.79063E-01
 8.50000E+00    1.61087E-01
 9.00000E+00    1.47884E-01
 9.50000E+00    1.37284E-01
 1.00000E+01    1.28279E-01
 1.05000E+01    1.20418E-01
 1.10000E+01    1.13271E-01
 1.15000E+01    1.06892E-01
 1.20000E+01    1.01019E-01
 1.25000E+01    9.57081E-02
 1.30000E+01    9.07589E-02
 1.35000E+01    8.62385E-02
 1.40000E+01    8.20194E-02
 1.45000E+01    7.81429E-02
 1.50000E+01    7.45220E-02
 1.55000E+01    7.09097E-02
 1.60000E+01    6.78676E-02
 1.65000E+01    6.51196E-02
 1.70000E+01    6.22746E-02
 1.75000E+01    5.95561E-02
 1.80000E+01    5.70561E-02
 1.85000E+01    5.49054E-02
 1.90000E+01    5.29386E-02
 1.95000E+01    5.08387E-02
 2.00000E+01    4.88219E-02
