# n + Dy162 : (n,n'20)  
# jendl4.0   N.Iwamoto,S.Chiba                 EVAL-Nov09
# uncertainties: n
# # energies =    65
#   E(MeV)       xs(mb) 
 1.49967E+00    0.00000E+00
 1.50000E+00    7.07661E-04
 1.52789E+00    1.69831E-02
 1.53966E+00    2.52741E-02
 1.54523E+00    2.92841E-02
 1.58070E+00    6.12942E-02
 1.58410E+00    6.48317E-02
 1.58544E+00    6.61631E-02
 1.60000E+00    8.07745E-02
 1.64460E+00    1.36281E-01
 1.64740E+00    1.39846E-01
 1.64812E+00    1.40824E-01
 1.67665E+00    1.83263E-01
 1.67948E+00    1.87867E-01
 1.68092E+00    1.90186E-01
 1.69384E+00    2.12095E-01
 1.70000E+00    2.23034E-01
 1.70188E+00    2.26227E-01
 1.73909E+00    2.95881E-01
 1.74983E+00    3.18368E-01
 1.75659E+00    3.32848E-01
 1.76279E+00    3.46598E-01
 1.76575E+00    3.53120E-01
 1.77761E+00    3.80488E-01
 1.80000E+00    4.35365E-01
 1.90000E+00    7.07564E-01
 2.00000E+00    1.01231E+00
 2.25000E+00    1.81149E+00
 2.50000E+00    2.23361E+00
 2.75000E+00    2.43009E+00
 3.00000E+00    2.49978E+00
 3.50000E+00    2.00642E+00
 4.00000E+00    1.45031E+00
 4.50000E+00    9.93065E-01
 5.00000E+00    6.68565E-01
 5.50000E+00    4.58318E-01
 6.00000E+00    3.29892E-01
 6.50000E+00    2.54369E-01
 7.00000E+00    2.09468E-01
 7.50000E+00    1.81418E-01
 8.00000E+00    1.62571E-01
 8.50000E+00    1.48771E-01
 9.00000E+00    1.37827E-01
 9.50000E+00    1.28618E-01
 1.00000E+01    1.20585E-01
 1.05000E+01    1.13469E-01
 1.10000E+01    1.06939E-01
 1.15000E+01    1.01078E-01
 1.20000E+01    9.56677E-02
 1.25000E+01    9.07510E-02
 1.30000E+01    8.61633E-02
 1.35000E+01    8.19577E-02
 1.40000E+01    7.80285E-02
 1.45000E+01    7.44075E-02
 1.50000E+01    7.10225E-02
 1.55000E+01    6.76330E-02
 1.60000E+01    6.47648E-02
 1.65000E+01    6.21990E-02
 1.70000E+01    5.95357E-02
 1.75000E+01    5.69450E-02
 1.80000E+01    5.45986E-02
 1.85000E+01    5.25942E-02
 1.90000E+01    5.07196E-02
 1.95000E+01    4.87158E-02
 2.00000E+01    4.68288E-02
