# n + Dy162 : (n,n'14)  
# jendl4.0   N.Iwamoto,S.Chiba                 EVAL-Nov09
# uncertainties: n
# # energies =    72
#   E(MeV)       xs(mb) 
 1.36639E+00    0.00000E+00
 1.38365E+00    1.55552E+01
 1.39917E+00    2.34633E+01
 1.40000E+00    2.38628E+01
 1.40898E+00    2.81500E+01
 1.46252E+00    5.13562E+01
 1.49492E+00    6.24858E+01
 1.49967E+00    6.39981E+01
 1.50000E+00    6.40980E+01
 1.52789E+00    7.22103E+01
 1.53966E+00    7.54928E+01
 1.54523E+00    7.70162E+01
 1.58070E+00    8.54986E+01
 1.58410E+00    8.58743E+01
 1.58544E+00    8.60691E+01
 1.60000E+00    8.85346E+01
 1.64460E+00    9.60182E+01
 1.64740E+00    9.64535E+01
 1.64812E+00    9.65233E+01
 1.67665E+00    1.00253E+02
 1.67948E+00    1.00553E+02
 1.68092E+00    1.00607E+02
 1.69384E+00    1.01760E+02
 1.70000E+00    1.02338E+02
 1.70188E+00    1.02514E+02
 1.73909E+00    1.05199E+02
 1.74983E+00    1.05308E+02
 1.75659E+00    1.05292E+02
 1.76279E+00    1.05296E+02
 1.76575E+00    1.05365E+02
 1.77761E+00    1.05485E+02
 1.80000E+00    1.05330E+02
 1.90000E+00    1.04073E+02
 2.00000E+00    9.92338E+01
 2.25000E+00    8.37450E+01
 2.50000E+00    6.07522E+01
 2.75000E+00    4.54096E+01
 3.00000E+00    3.13528E+01
 3.50000E+00    1.56356E+01
 4.00000E+00    7.70248E+00
 4.50000E+00    3.80086E+00
 5.00000E+00    1.92053E+00
 5.50000E+00    1.02521E+00
 6.00000E+00    5.98031E-01
 6.50000E+00    3.93815E-01
 7.00000E+00    2.93132E-01
 7.50000E+00    2.40163E-01
 8.00000E+00    2.09475E-01
 8.50000E+00    1.89347E-01
 9.00000E+00    1.74434E-01
 9.50000E+00    1.62331E-01
 1.00000E+01    1.51958E-01
 1.05000E+01    1.42844E-01
 1.10000E+01    1.34518E-01
 1.15000E+01    1.27063E-01
 1.20000E+01    1.20187E-01
 1.25000E+01    1.13950E-01
 1.30000E+01    1.08135E-01
 1.35000E+01    1.02810E-01
 1.40000E+01    9.78384E-02
 1.45000E+01    9.32619E-02
 1.50000E+01    8.89853E-02
 1.55000E+01    8.47380E-02
 1.60000E+01    8.10909E-02
 1.65000E+01    7.78717E-02
 1.70000E+01    7.45141E-02
 1.75000E+01    7.12475E-02
 1.80000E+01    6.83021E-02
 1.85000E+01    6.57743E-02
 1.90000E+01    6.34148E-02
 1.95000E+01    6.08965E-02
 2.00000E+01    5.85273E-02
