# n + Dy162 : (n,xa)    
# jendl4.0   N.Iwamoto,S.Chiba                 EVAL-Nov09
# 
# # energies =   114
#   E(MeV)        xs(mb) 
 8.11634E-02    2.23650E-06
 9.00000E-02    1.92120E-06
 1.00000E-01    1.78912E-06
 1.05000E-01    1.74236E-06
 1.10000E-01    1.69756E-06
 1.20000E-01    1.63866E-06
 1.30000E-01    1.60296E-06
 1.40000E-01    1.58231E-06
 1.50000E-01    1.57484E-06
 1.60000E-01    1.57718E-06
 1.70000E-01    1.58798E-06
 1.80000E-01    1.60536E-06
 1.90000E-01    1.63031E-06
 2.00000E-01    1.66053E-06
 2.25000E-01    1.75796E-06
 2.50000E-01    1.89062E-06
 2.67319E-01    1.99259E-06
 2.75000E-01    2.03832E-06
 3.00000E-01    2.20286E-06
 4.00000E-01    3.15396E-06
 5.00000E-01    4.68423E-06
 5.51937E-01    5.81024E-06
 6.00000E-01    7.06629E-06
 7.00000E-01    1.07277E-05
 8.00000E-01    1.63018E-05
 8.93693E-01    2.40814E-05
 8.93694E-01    2.40815E-05
 9.00000E-01    2.40993E-05
 9.27019E-01    2.60753E-05
 9.68938E-01    3.00529E-05
 1.00000E+00    3.25130E-05
 1.06760E+00    4.03881E-05
 1.10000E+00    4.46591E-05
 1.15538E+00    5.38704E-05
 1.19013E+00    5.87012E-05
 1.20000E+00    6.03999E-05
 1.21763E+00    6.34800E-05
 1.28372E+00    7.59602E-05
 1.30000E+00    7.80195E-05
 1.30509E+00    7.89556E-05
 1.33271E+00    8.40353E-05
 1.36639E+00    9.22606E-05
 1.38365E+00    9.59227E-05
 1.39917E+00    9.96193E-05
 1.40000E+00    9.98241E-05
 1.40898E+00    1.02041E-04
 1.46252E+00    1.16983E-04
 1.49492E+00    1.25155E-04
 1.49967E+00    1.26491E-04
 1.50000E+00    1.26593E-04
 1.52789E+00    1.35244E-04
 1.53966E+00    1.39192E-04
 1.54523E+00    1.41060E-04
 1.58070E+00    1.55466E-04
 1.58410E+00    1.56462E-04
 1.58543E+00    1.56851E-04
 1.58544E+00    1.56854E-04
 1.60000E+00    1.62261E-04
 1.64460E+00    1.80379E-04
 1.64740E+00    1.81530E-04
 1.64812E+00    1.81500E-04
 1.67665E+00    1.94907E-04
 1.67948E+00    1.96131E-04
 1.68092E+00    1.96700E-04
 1.69384E+00    2.01806E-04
 1.70000E+00    2.04444E-04
 1.70188E+00    2.05250E-04
 1.73909E+00    2.21187E-04
 1.74983E+00    2.25100E-04
 1.75659E+00    2.30803E-04
 1.76279E+00    2.32820E-04
 1.76575E+00    2.33783E-04
 1.77761E+00    2.38767E-04
 1.80000E+00    2.48175E-04
 1.90000E+00    3.01195E-04
 2.00000E+00    3.60887E-04
 2.25000E+00    5.68631E-04
 2.50000E+00    8.21713E-04
 2.75000E+00    1.20872E-03
 3.00000E+00    1.67016E-03
 3.50000E+00    3.07695E-03
 4.00000E+00    5.14730E-03
 4.50000E+00    7.88756E-03
 5.00000E+00    1.12499E-02
 5.50000E+00    1.51787E-02
 6.00000E+00    1.95572E-02
 6.50000E+00    2.44591E-02
 7.00000E+00    3.00311E-02
 7.50000E+00    3.66080E-02
 8.00000E+00    4.52162E-02
 8.50000E+00    5.74704E-02
 9.00000E+00    7.46116E-02
 9.50000E+00    1.00842E-01
 1.00000E+01    1.39629E-01
 1.05000E+01    1.96204E-01
 1.10000E+01    2.77103E-01
 1.15000E+01    3.88124E-01
 1.20000E+01    5.38762E-01
 1.25000E+01    7.33734E-01
 1.30000E+01    9.76433E-01
 1.35000E+01    1.26862E+00
 1.40000E+01    1.60875E+00
 1.45000E+01    1.99439E+00
 1.50000E+01    2.42070E+00
 1.55000E+01    2.88308E+00
 1.60000E+01    3.37554E+00
 1.65000E+01    3.89305E+00
 1.70000E+01    4.43106E+00
 1.75000E+01    4.98316E+00
 1.80000E+01    5.54699E+00
 1.85000E+01    6.11755E+00
 1.90000E+01    6.69393E+00
 1.95000E+01    7.27127E+00
 2.00000E+01    7.84872E+00
