# n + Dy162 : (n,t)     
# jendl4.0   N.Iwamoto,S.Chiba                 EVAL-Nov09
# uncertainties: n
# # energies =    47
#   E(MeV)       xs(mb) 
 7.26735E+00    0.00000E+00
 7.33143E+00    2.68550E-26
 7.33186E+00    2.70450E-26
 7.34671E+00    3.40900E-26
 7.34693E+00    3.41990E-26
 7.37358E+00    4.74410E-26
 7.39462E+00    5.80190E-26
 7.40140E+00    6.14450E-26
 7.40695E+00    6.42570E-26
 7.40769E+00    6.46330E-26
 7.42477E+00    7.33280E-26
 7.43615E+00    7.91330E-26
 7.43710E+00    7.96180E-26
 7.44528E+00    8.37980E-26
 7.46900E+00    9.59330E-26
 7.49136E+00    1.07380E-25
 7.50158E+00    1.12610E-25
 7.50580E+00    4.28610E-24
 7.51303E+00    1.97100E-23
 7.52649E+00    6.42680E-23
 7.53423E+00    9.68090E-23
 7.53784E+00    1.14120E-22
 7.54809E+00    1.68760E-22
 8.50000E+00    5.62620E-21
 9.00000E+00    1.10440E-18
 9.50000E+00    9.13740E-15
 1.00000E+01    4.73080E-12
 1.05000E+01    4.75790E-10
 1.10000E+01    1.65230E-08
 1.15000E+01    2.75010E-07
 1.20000E+01    2.68800E-06
 1.25000E+01    1.77286E-05
 1.30000E+01    8.65380E-05
 1.35000E+01    3.34077E-04
 1.40000E+01    1.06799E-03
 1.45000E+01    2.87963E-03
 1.50000E+01    6.87396E-03
 1.55000E+01    1.48610E-02
 1.60000E+01    2.79113E-02
 1.65000E+01    4.70872E-02
 1.70000E+01    7.53782E-02
 1.75000E+01    1.11406E-01
 1.80000E+01    1.56295E-01
 1.85000E+01    2.09696E-01
 1.90000E+01    2.69519E-01
 1.95000E+01    3.37891E-01
 2.00000E+01    4.10665E-01
