# n + Dy162 : (n,n'30)  
# jendl4.0   N.Iwamoto,S.Chiba                 EVAL-Nov09
# uncertainties: n
# # energies =    53
#   E(MeV)       xs(mb) 
 1.67665E+00    0.00000E+00
 1.67948E+00    3.90665E+00
 1.68092E+00    4.74954E+00
 1.69384E+00    9.21135E+00
 1.70000E+00    1.07158E+01
 1.70188E+00    1.11390E+01
 1.73909E+00    1.74894E+01
 1.74983E+00    1.89539E+01
 1.75659E+00    1.97998E+01
 1.76279E+00    2.03001E+01
 1.76575E+00    2.05952E+01
 1.77761E+00    2.17749E+01
 1.80000E+00    2.37464E+01
 1.90000E+00    2.86846E+01
 2.00000E+00    2.95579E+01
 2.25000E+00    2.68264E+01
 2.50000E+00    1.99001E+01
 2.75000E+00    1.48493E+01
 3.00000E+00    1.01053E+01
 3.50000E+00    4.72398E+00
 4.00000E+00    2.26158E+00
 4.50000E+00    1.15622E+00
 5.00000E+00    6.56375E-01
 5.50000E+00    4.25404E-01
 6.00000E+00    3.13514E-01
 6.50000E+00    2.55732E-01
 7.00000E+00    2.22560E-01
 7.50000E+00    2.00833E-01
 8.00000E+00    1.84743E-01
 8.50000E+00    1.71689E-01
 9.00000E+00    1.60479E-01
 9.50000E+00    1.50541E-01
 1.00000E+01    1.41590E-01
 1.05000E+01    1.33512E-01
 1.10000E+01    1.26013E-01
 1.15000E+01    1.19238E-01
 1.20000E+01    1.12955E-01
 1.25000E+01    1.07234E-01
 1.30000E+01    1.01878E-01
 1.35000E+01    9.69644E-02
 1.40000E+01    9.23633E-02
 1.45000E+01    8.81215E-02
 1.50000E+01    8.41493E-02
 1.55000E+01    8.01876E-02
 1.60000E+01    7.67935E-02
 1.65000E+01    7.38026E-02
 1.70000E+01    7.06432E-02
 1.75000E+01    6.76063E-02
 1.80000E+01    6.48433E-02
 1.85000E+01    6.24605E-02
 1.90000E+01    6.02759E-02
 1.95000E+01    5.79061E-02
 2.00000E+01    5.56662E-02
