# n + Ca 40 : (n,tot)   
# jendl.ad   K.Shibata                         EVAL-JUN06
# uncertainties: n
# # energies =    69
#   E(MeV)       xs(mb) 
 1.00000E-10    2.84624E+03
 5.00000E-09    7.74986E+02
 1.00000E-08    5.86936E+02
 1.50000E-08    4.93132E+02
 2.00000E-08    4.33866E+02
 2.50000E-08    3.91984E+02
 3.00000E-08    3.60308E+02
 3.50000E-08    3.31269E+02
 4.20000E-08    3.03040E+02
 5.00000E-08    2.79524E+02
 5.80000E-08    2.59774E+02
 6.70000E-08    2.39710E+02
 8.00000E-08    2.16931E+02
 1.00000E-07    1.88741E+02
 1.40000E-07    1.62843E+02
 1.80000E-07    1.45442E+02
 2.20000E-07    1.33932E+02
 2.50000E-07    1.26077E+02
 2.80000E-07    1.20441E+02
 3.00000E-07    1.16481E+02
 3.20000E-07    1.12081E+02
 3.50000E-07    1.06028E+02
 4.00000E-07    9.70365E+01
 5.00000E-07    8.67992E+01
 6.25000E-07    7.76570E+01
 7.80000E-07    7.18887E+01
 8.50000E-07    6.91674E+01
 9.10000E-07    6.72632E+01
 9.50000E-07    6.61693E+01
 9.72000E-07    6.53856E+01
 9.96000E-07    6.45979E+01
 1.02000E-06    6.38515E+01
 1.04500E-06    6.30759E+01
 1.07100E-06    6.22879E+01
 1.09700E-06    6.15638E+01
 1.12300E-06    6.08524E+01
 1.15000E-06    5.86569E+01
 1.30000E-06    5.48851E+01
 1.50000E-06    4.87491E+01
 2.10000E-06    4.24454E+01
 2.60000E-06    3.79148E+01
 3.30000E-06    3.40467E+01
 4.00000E-06    2.60860E+01
 9.87700E-06    1.83381E+01
 1.59680E-05    1.41785E+01
 2.77000E-05    1.07588E+01
 4.80520E-05    8.35903E+00
 7.55014E-05    6.30931E+00
 1.48728E-04    4.24670E+00
 3.67262E-04    2.67346E+00
 9.06898E-04    1.85998E+00
 1.42510E-03    1.45454E+00
 2.23945E-03    3.49094E+00
 3.51910E-03    1.29511E+00
 5.53000E-03    3.01930E+00
 9.11800E-03    2.32264E+01
 1.50300E-02    1.29109E+01
 2.47800E-02    1.73733E-01
 4.08500E-02    4.69030E+00
 6.73400E-02    1.76489E+00
 1.11000E-01    3.61824E+00
 1.83000E-01    3.44864E+00
 3.02000E-01    4.50384E-01
 5.00000E-01    1.40047E+00
 8.21000E-01    1.36686E+00
 1.35300E+00    1.44300E+00
 2.23100E+00    1.35991E+00
 3.67900E+00    7.93614E-01
 6.06500E+00    6.93780E+02
