# n + Pb  0 : (n,xp)
# jendl4.0   O.Iwamoto, N.Iwamoto              EVAL-MAR10
#
# # energies =    74
#   E(MeV)          xs(mb) 
 1.50000E-01    0.00000E+00
 2.00000E-01    0.00000E+00
 4.00000E-01    0.00000E+00
 5.00000E-01    0.00000E+00
 6.00000E-01    0.00000E+00
 8.00000E-01    5.91078E-20
 1.00000E+00    1.34880E-19
 1.20000E+00    1.26032E-18
 1.40000E+00    1.44285E-16
 1.50000E+00    1.12054E-15
 1.60000E+00    7.17325E-15
 1.80000E+00    1.46426E-13
 2.00000E+00    1.92049E-12
 2.50000E+00    3.46295E-10
 2.62723E+00    4.21599E-09
 3.00000E+00    1.61947E-08
 3.21325E+00    1.47037E-07
 3.49196E+00    3.18044E-07
 3.50000E+00    3.22977E-07
 3.72643E+00    1.86135E-06
 3.93881E+00    3.30428E-06
 3.96558E+00    3.48615E-06
 3.98017E+00    3.58528E-06
 4.00000E+00    3.72000E-06
 4.01508E+00    4.44183E-06
 4.05658E+00    6.42829E-06
 4.06462E+00    6.81314E-06
 4.07014E+00    7.07735E-06
 4.10521E+00    8.75603E-06
 4.12591E+00    9.74687E-06
 4.14532E+00    1.06760E-05
 4.16108E+00    1.14303E-05
 4.17917E+00    1.22963E-05
 4.20068E+00    1.33258E-05
 4.22580E+00    1.45283E-05
 4.25001E+00    1.56871E-05
 4.25052E+00    1.57115E-05
 4.27413E+00    1.68416E-05
 4.28307E+00    1.72696E-05
 4.31701E+00    1.88942E-05
 4.33894E+00    1.99439E-05
 4.34417E+00    2.01942E-05
 4.50000E+00    2.76533E-05
 5.00000E+00    1.39938E-04
 5.50000E+00    5.08661E-04
 6.00000E+00    1.40384E-03
 6.50000E+00    3.09769E-03
 7.00000E+00    5.72340E-03
 7.50000E+00    9.24196E-03
 8.00000E+00    1.36322E-02
 8.50000E+00    1.93096E-02
 9.00000E+00    2.76251E-02
 9.50000E+00    4.12609E-02
 1.00000E+01    6.43816E-02
 1.05000E+01    1.02648E-01
 1.10000E+01    1.62465E-01
 1.15000E+01    2.52003E-01
 1.20000E+01    3.80890E-01
 1.25000E+01    5.58701E-01
 1.30000E+01    7.97095E-01
 1.35000E+01    1.10994E+00
 1.40000E+01    1.50813E+00
 1.45000E+01    2.00590E+00
 1.50000E+01    2.61268E+00
 1.55000E+01    3.33731E+00
 1.60000E+01    4.18857E+00
 1.65000E+01    5.16760E+00
 1.70000E+01    6.28322E+00
 1.75000E+01    7.53313E+00
 1.80000E+01    8.91849E+00
 1.85000E+01    1.04450E+01
 1.90000E+01    1.21081E+01
 1.95000E+01    1.39091E+01
 2.00000E+01    1.58557E+01
