# n + Pb  0 : (n,xa)
# jendl4.0   O.Iwamoto, N.Iwamoto              EVAL-MAR10
#
# # energies =    74
#   E(MeV)          xs(mb) 
 1.50000E-01    6.68176E-06
 2.00000E-01    1.93310E-06
 4.00000E-01    1.95114E-06
 5.00000E-01    2.55079E-06
 6.00000E-01    2.81770E-06
 8.00000E-01    3.21246E-06
 1.00000E+00    4.03255E-06
 1.20000E+00    6.16799E-06
 1.40000E+00    9.09200E-06
 1.50000E+00    1.10290E-05
 1.60000E+00    1.34805E-05
 1.80000E+00    1.80549E-05
 2.00000E+00    2.62154E-05
 2.50000E+00    7.51470E-05
 2.62723E+00    1.03454E-04
 3.00000E+00    2.01166E-04
 3.21325E+00    3.18215E-04
 3.49196E+00    4.76752E-04
 3.50000E+00    4.81261E-04
 3.72643E+00    7.25150E-04
 3.93881E+00    9.70076E-04
 3.96558E+00    1.00213E-03
 3.98017E+00    1.01943E-03
 4.00000E+00    1.04309E-03
 4.01508E+00    1.07048E-03
 4.05658E+00    1.14592E-03
 4.06462E+00    1.16059E-03
 4.07014E+00    1.17066E-03
 4.10521E+00    1.23393E-03
 4.12591E+00    1.27043E-03
 4.14532E+00    1.30420E-03
 4.16108E+00    1.33161E-03
 4.17917E+00    1.36249E-03
 4.20068E+00    1.39921E-03
 4.22580E+00    1.44209E-03
 4.25001E+00    1.48356E-03
 4.25052E+00    1.48415E-03
 4.27413E+00    1.52268E-03
 4.28307E+00    1.53727E-03
 4.31701E+00    1.59451E-03
 4.33894E+00    1.63150E-03
 4.34417E+00    1.64038E-03
 4.50000E+00    1.90928E-03
 5.00000E+00    3.18943E-03
 5.50000E+00    4.89846E-03
 6.00000E+00    6.94340E-03
 6.50000E+00    9.28938E-03
 7.00000E+00    1.18902E-02
 7.50000E+00    1.47326E-02
 8.00000E+00    1.78427E-02
 8.50000E+00    2.12975E-02
 9.00000E+00    2.50128E-02
 9.50000E+00    2.91683E-02
 1.00000E+01    3.41236E-02
 1.05000E+01    4.05778E-02
 1.10000E+01    5.00008E-02
 1.15000E+01    6.39542E-02
 1.20000E+01    8.52579E-02
 1.25000E+01    1.17741E-01
 1.30000E+01    1.66377E-01
 1.35000E+01    2.37336E-01
 1.40000E+01    3.37880E-01
 1.45000E+01    4.75063E-01
 1.50000E+01    6.56636E-01
 1.55000E+01    8.88581E-01
 1.60000E+01    1.17347E+00
 1.65000E+01    1.51280E+00
 1.70000E+01    1.90734E+00
 1.75000E+01    2.35282E+00
 1.80000E+01    2.84821E+00
 1.85000E+01    3.38689E+00
 1.90000E+01    3.96588E+00
 1.95000E+01    4.57917E+00
 2.00000E+01    5.22483E+00
