# n + Pb  0 : (n,xn)
# jendl4.0   O.Iwamoto, N.Iwamoto              EVAL-MAR10
#
# # energies =    74
#   E(MeV)          xs(mb) 
 1.50000E-01    0.00000E+00
 2.00000E-01    2.96204E-05
 4.00000E-01    7.75689E-04
 5.00000E-01    2.00982E-03
 6.00000E-01    2.34751E+01
 8.00000E-01    7.08501E+01
 1.00000E+00    2.11290E+02
 1.20000E+00    3.01460E+02
 1.40000E+00    3.84380E+02
 1.50000E+00    4.31651E+02
 1.60000E+00    4.78570E+02
 1.80000E+00    5.71507E+02
 2.00000E+00    6.60503E+02
 2.50000E+00    8.45167E+02
 2.62723E+00    8.79914E+02
 3.00000E+00    1.28303E+03
 3.21325E+00    1.41066E+03
 3.49196E+00    1.60985E+03
 3.50000E+00    1.62145E+03
 3.72643E+00    1.76534E+03
 3.93881E+00    1.89388E+03
 3.96558E+00    1.91056E+03
 3.98017E+00    1.92244E+03
 4.00000E+00    1.93791E+03
 4.01508E+00    1.94718E+03
 4.05658E+00    1.97425E+03
 4.06462E+00    1.97895E+03
 4.07014E+00    1.98283E+03
 4.10521E+00    2.01048E+03
 4.12591E+00    2.02687E+03
 4.14532E+00    2.04512E+03
 4.16108E+00    2.05965E+03
 4.17917E+00    2.07621E+03
 4.20068E+00    2.09609E+03
 4.22580E+00    2.11879E+03
 4.25001E+00    2.13956E+03
 4.25052E+00    2.14055E+03
 4.27413E+00    2.16413E+03
 4.28307E+00    2.17362E+03
 4.31701E+00    2.20352E+03
 4.33894E+00    2.22139E+03
 4.34417E+00    2.22583E+03
 4.50000E+00    2.33127E+03
 5.00000E+00    2.50195E+03
 5.50000E+00    2.55328E+03
 6.00000E+00    2.55359E+03
 6.50000E+00    2.53916E+03
 7.00000E+00    2.53486E+03
 7.50000E+00    2.58904E+03
 8.00000E+00    2.69222E+03
 8.50000E+00    2.92523E+03
 9.00000E+00    3.24362E+03
 9.50000E+00    3.57553E+03
 1.00000E+01    3.88409E+03
 1.05000E+01    4.12920E+03
 1.10000E+01    4.30976E+03
 1.15000E+01    4.44341E+03
 1.20000E+01    4.53537E+03
 1.25000E+01    4.59905E+03
 1.30000E+01    4.65091E+03
 1.35000E+01    4.69150E+03
 1.40000E+01    4.72760E+03
 1.45000E+01    4.75449E+03
 1.50000E+01    4.77887E+03
 1.55000E+01    4.80031E+03
 1.60000E+01    4.83232E+03
 1.65000E+01    4.88010E+03
 1.70000E+01    4.95553E+03
 1.75000E+01    5.05467E+03
 1.80000E+01    5.19087E+03
 1.85000E+01    5.34687E+03
 1.90000E+01    5.52201E+03
 1.95000E+01    5.69017E+03
 2.00000E+01    5.85224E+03
