# n + Os186 : (n,p)     
# jendl.ad   N.Iwamoto                         EVAL-Apr14
# uncertainties: n
# # energies =    93
#   E(MeV)       xs(mb) 
 2.88497E-01    0.00000E+00
 3.47827E-01    6.46010E-20
 3.88397E-01    1.08780E-19
 4.35564E-01    1.60130E-19
 4.38305E-01    1.63120E-19
 4.63369E-01    1.90430E-19
 4.75506E-01    2.03660E-19
 5.00339E-01    2.30730E-19
 5.58753E-01    2.94390E-19
 5.63608E-01    2.99680E-19
 6.04209E-01    3.43930E-19
 6.06676E-01    3.46620E-19
 6.08066E-01    3.48130E-19
 6.12625E-01    3.53100E-19
 6.20287E-01    3.61450E-19
 6.32352E-01    3.74600E-19
 6.41604E-01    3.84680E-19
 6.68941E-01    4.14480E-19
 7.08555E-01    4.57650E-19
 7.11337E-01    4.60680E-19
 7.16630E-01    4.66450E-19
 7.53977E-01    5.07150E-19
 7.60824E-01    5.14620E-19
 7.61563E-01    5.15420E-19
 7.62052E-01    5.15950E-19
 7.88487E-01    5.44770E-19
 7.91935E-01    5.48520E-19
 1.30000E+00    1.10220E-18
 1.35926E+00    8.84430E-18
 1.40000E+00    3.21280E-17
 1.42865E+00    7.56800E-17
 1.46078E+00    1.91420E-16
 1.46390E+00    2.08200E-16
 1.46884E+00    2.36230E-16
 1.48810E+00    3.96370E-16
 1.49938E+00    5.33200E-16
 1.50000E+00    5.41980E-16
 1.56829E+00    3.07600E-15
 1.57952E+00    4.03980E-15
 1.60000E+00    6.41390E-15
 1.63200E+00    1.33290E-14
 1.63737E+00    1.50370E-14
 1.64971E+00    1.97890E-14
 1.66255E+00    2.60950E-14
 1.70000E+00    5.66140E-14
 1.71385E+00    7.52580E-14
 1.76030E+00    1.90430E-13
 1.76402E+00    2.04760E-13
 1.78151E+00    2.83370E-13
 1.78428E+00    2.98510E-13
 1.78543E+00    3.05070E-13
 1.80000E+00    3.96610E-13
 1.82245E+00    5.97430E-13
 1.90000E+00    2.33550E-12
 2.00000E+00    1.16980E-11
 2.25000E+00    3.36610E-10
 2.50000E+00    5.29740E-09
 2.75000E+00    4.78150E-08
 3.00000E+00    3.08180E-07
 3.50000E+00    5.40768E-06
 4.00000E+00    4.33652E-05
 4.50000E+00    2.02496E-04
 5.00000E+00    6.43532E-04
 5.50000E+00    1.55377E-03
 6.00000E+00    3.11850E-03
 6.50000E+00    5.64488E-03
 7.00000E+00    9.99661E-03
 7.50000E+00    1.82049E-02
 8.00000E+00    3.41271E-02
 8.50000E+00    6.41759E-02
 9.00000E+00    1.18040E-01
 9.50000E+00    2.08953E-01
 1.00000E+01    3.53612E-01
 1.05000E+01    5.71275E-01
 1.10000E+01    8.82311E-01
 1.15000E+01    1.30634E+00
 1.20000E+01    1.86051E+00
 1.25000E+01    2.55811E+00
 1.30000E+01    3.40774E+00
 1.35000E+01    4.41249E+00
 1.40000E+01    5.56907E+00
 1.45000E+01    6.86689E+00
 1.50000E+01    8.28705E+00
 1.55000E+01    9.80216E+00
 1.60000E+01    1.13769E+01
 1.65000E+01    1.29791E+01
 1.70000E+01    1.45552E+01
 1.75000E+01    1.60719E+01
 1.80000E+01    1.74978E+01
 1.85000E+01    1.88106E+01
 1.90000E+01    1.99965E+01
 1.95000E+01    2.10510E+01
 2.00000E+01    2.19759E+01
