# n + Xe130 : (n,a)     
# jendl4.0   S.Kunieda, A.Ichihara, K.Shibata+ EVAL-FEB22
# uncertainties: n
# # energies =    50
#   E(MeV)       xs(mb) 
 1.00000E-01    0.00000E+00
 5.00000E-01    2.77300E-08
 5.50000E-01    2.54800E-08
 6.00000E-01    2.18500E-08
 6.50000E-01    2.55700E-08
 7.00000E-01    3.16500E-08
 7.50000E-01    4.02800E-08
 8.00000E-01    5.16600E-08
 8.50000E-01    6.69200E-08
 9.00000E-01    8.66100E-08
 9.50000E-01    1.12800E-07
 1.00000E+00    1.46400E-07
 1.20000E+00    3.79000E-07
 1.40000E+00    8.84500E-07
 1.60000E+00    2.20400E-06
 1.80000E+00    5.00700E-06
 2.00000E+00    1.09100E-05
 2.20000E+00    2.25400E-05
 2.40000E+00    4.12900E-05
 2.60000E+00    7.13400E-05
 2.80000E+00    1.13200E-04
 3.00000E+00    1.78000E-04
 3.25000E+00    3.20100E-04
 3.50000E+00    5.07000E-04
 3.75000E+00    8.49000E-04
 4.00000E+00    1.26100E-03
 4.25000E+00    1.88300E-03
 4.50000E+00    2.74000E-03
 4.75000E+00    3.80800E-03
 5.00000E+00    5.25900E-03
 5.50000E+00    9.08800E-03
 6.00000E+00    1.44200E-02
 6.50000E+00    2.13700E-02
 7.00000E+00    2.99800E-02
 7.50000E+00    4.02900E-02
 8.00000E+00    5.22400E-02
 8.50000E+00    6.62900E-02
 9.00000E+00    8.33800E-02
 9.50000E+00    1.05000E-01
 1.00000E+01    1.33000E-01
 1.10000E+01    2.19600E-01
 1.20000E+01    3.78400E-01
 1.30000E+01    6.45300E-01
 1.40000E+01    1.04000E+00
 1.50000E+01    1.54900E+00
 1.60000E+01    2.11300E+00
 1.70000E+01    2.64500E+00
 1.80000E+01    3.06500E+00
 1.90000E+01    3.33900E+00
 2.00000E+01    3.48300E+00
