# n + Xe130 : (n,xt)    
# jendl4.0   S.Kunieda, A.Ichihara, K.Shibata+ EVAL-FEB22
# 
# # energies =    78
#   E(MeV)        xs(mb) 
 5.40248E-01    0.00000E+00
 5.50000E-01    0.00000E+00
 6.00000E-01    0.00000E+00
 6.50000E-01    0.00000E+00
 7.00000E-01    0.00000E+00
 7.50000E-01    0.00000E+00
 8.00000E-01    0.00000E+00
 8.50000E-01    0.00000E+00
 9.00000E-01    0.00000E+00
 9.50000E-01    0.00000E+00
 1.00000E+00    0.00000E+00
 1.13086E+00    0.00000E+00
 1.20000E+00    0.00000E+00
 1.21396E+00    0.00000E+00
 1.40000E+00    0.00000E+00
 1.60000E+00    0.00000E+00
 1.60265E+00    0.00000E+00
 1.64521E+00    0.00000E+00
 1.80000E+00    0.00000E+00
 1.80747E+00    0.00000E+00
 1.82222E+00    0.00000E+00
 1.95919E+00    0.00000E+00
 2.00000E+00    0.00000E+00
 2.03275E+00    0.00000E+00
 2.07559E+00    0.00000E+00
 2.09813E+00    0.00000E+00
 2.11971E+00    0.00000E+00
 2.16691E+00    0.00000E+00
 2.18850E+00    0.00000E+00
 2.20000E+00    0.00000E+00
 2.24078E+00    0.00000E+00
 2.26040E+00    0.00000E+00
 2.31393E+00    0.00000E+00
 2.32571E+00    0.00000E+00
 2.32794E+00    0.00000E+00
 2.36418E+00    0.00000E+00
 2.38042E+00    0.00000E+00
 2.39364E+00    0.00000E+00
 2.40000E+00    0.00000E+00
 2.40475E+00    0.00000E+00
 2.44602E+00    0.00000E+00
 2.46099E+00    0.00000E+00
 2.51349E+00    0.00000E+00
 2.52166E+00    0.00000E+00
 2.55307E+00    0.00000E+00
 2.56421E+00    0.00000E+00
 2.57429E+00    0.00000E+00
 2.60000E+00    0.00000E+00
 2.80000E+00    0.00000E+00
 3.00000E+00    0.00000E+00
 3.25000E+00    0.00000E+00
 3.50000E+00    0.00000E+00
 3.75000E+00    0.00000E+00
 4.00000E+00    0.00000E+00
 4.25000E+00    0.00000E+00
 4.50000E+00    0.00000E+00
 4.75000E+00    0.00000E+00
 5.00000E+00    0.00000E+00
 5.50000E+00    0.00000E+00
 6.00000E+00    0.00000E+00
 6.50000E+00    0.00000E+00
 7.00000E+00    0.00000E+00
 7.50000E+00    0.00000E+00
 8.00000E+00    0.00000E+00
 8.50000E+00    0.00000E+00
 9.00000E+00    0.00000E+00
 9.50000E+00    5.31600E-27
 1.00000E+01    1.35400E-19
 1.10000E+01    8.81100E-13
 1.20000E+01    1.85900E-08
 1.30000E+01    6.17100E-06
 1.40000E+01    2.34700E-04
 1.50000E+01    3.04400E-03
 1.60000E+01    1.92100E-02
 1.70000E+01    7.09800E-02
 1.80000E+01    1.79500E-01
 1.90000E+01    3.52100E-01
 2.00000E+01    5.83900E-01
