# n + Xe126 : (n,xp)    
# jendl4.0   S.Kunieda, A.Ichihara, K.Shibata+ EVAL-FEB22
# 
# # energies =    62
#   E(MeV)        xs(mb) 
 3.91748E-01    0.00000E+00
 4.00000E-01    0.00000E+00
 4.50000E-01    0.00000E+00
 5.00000E-01    0.00000E+00
 5.50000E-01    1.22200E-35
 6.00000E-01    1.29400E-31
 6.50000E-01    1.23700E-28
 7.00000E-01    2.66500E-26
 7.50000E-01    2.08600E-24
 8.00000E-01    8.16300E-23
 8.50000E-01    1.94200E-21
 8.86928E-01    2.32628E-20
 9.00000E-01    3.08100E-20
 9.49516E-01    3.49587E-19
 9.50000E-01    3.52700E-19
 1.00000E+00    3.20100E-18
 1.20000E+00    4.45000E-15
 1.32439E+00    6.69013E-13
 1.32822E+00    6.89476E-13
 1.40000E+00    1.07300E-12
 1.50041E+00    4.55403E-11
 1.60000E+00    8.96400E-11
 1.64814E+00    9.33122E-10
 1.69200E+00    1.70159E-09
 1.77462E+00    3.14937E-09
 1.80000E+00    3.59400E-09
 1.88212E+00    3.65997E-08
 1.89220E+00    4.06516E-08
 2.00000E+00    8.39800E-08
 2.20000E+00    1.29600E-06
 2.40000E+00    1.36400E-05
 2.60000E+00    9.45100E-05
 2.80000E+00    4.44100E-04
 3.00000E+00    1.56600E-03
 3.25000E+00    5.81800E-03
 3.50000E+00    1.72000E-02
 3.75000E+00    4.27800E-02
 4.00000E+00    9.38200E-02
 4.25000E+00    1.76900E-01
 4.50000E+00    3.17100E-01
 4.75000E+00    4.87600E-01
 5.00000E+00    7.46000E-01
 5.50000E+00    1.26700E+00
 6.00000E+00    1.90800E+00
 6.50000E+00    2.52100E+00
 7.00000E+00    3.06400E+00
 7.50000E+00    3.59400E+00
 8.00000E+00    4.22900E+00
 8.50000E+00    5.07700E+00
 9.00000E+00    6.22000E+00
 9.50000E+00    7.72100E+00
 1.00000E+01    9.62924E+00
 1.10000E+01    1.48125E+01
 1.20000E+01    2.17386E+01
 1.30000E+01    3.09940E+01
 1.40000E+01    4.23070E+01
 1.50000E+01    5.58160E+01
 1.60000E+01    7.09200E+01
 1.70000E+01    8.74700E+01
 1.80000E+01    1.05420E+02
 1.90000E+01    1.24790E+02
 2.00000E+01    1.45740E+02
