# n + Xe126 : (n,non)   
# jendl4.0   S.Kunieda, A.Ichihara, K.Shibata+ EVAL-FEB22
# uncertainties: n
# # energies =   101
#   E(MeV)       xs(mb) 
 2.33450E-03    0.00000E+00
 2.33450E-03    1.95575E+03
 3.00000E-03    1.66600E+03
 4.00000E-03    1.41300E+03
 5.00000E-03    1.25800E+03
 6.00000E-03    1.15200E+03
 7.00000E-03    1.07300E+03
 8.00000E-03    1.01200E+03
 9.00000E-03    9.62100E+02
 1.00000E-02    9.20100E+02
 1.25000E-02    8.35581E+02
 1.50000E-02    7.72320E+02
 2.00000E-02    6.82100E+02
 2.50000E-02    6.13678E+02
 3.00000E-02    5.62900E+02
 4.00000E-02    4.87000E+02
 5.00000E-02    4.34400E+02
 6.00000E-02    3.95900E+02
 7.00000E-02    3.66900E+02
 8.00000E-02    3.44600E+02
 9.00000E-02    3.27100E+02
 1.00000E-01    3.13100E+02
 1.20000E-01    2.92700E+02
 1.40000E-01    2.79100E+02
 1.60000E-01    2.69900E+02
 1.80000E-01    2.63600E+02
 2.00000E-01    2.59400E+02
 2.50000E-01    2.54300E+02
 3.00000E-01    2.54200E+02
 3.50000E-01    2.56600E+02
 3.91748E-01    2.25350E+02
 4.00000E-01    3.39100E+02
 4.50000E-01    5.55600E+02
 4.79464E-01    6.48000E+02
 5.00000E-01    7.12400E+02
 5.50000E-01    8.28400E+02
 6.00000E-01    9.20700E+02
 6.50000E-01    9.97500E+02
 7.00000E-01    1.06410E+03
 7.50000E-01    1.12310E+03
 8.00000E-01    1.17670E+03
 8.50000E-01    1.22540E+03
 8.86928E-01    1.22610E+03
 9.00000E-01    1.31146E+03
 9.49516E-01    1.40736E+03
 9.50000E-01    1.40928E+03
 1.00000E+00    1.48979E+03
 1.20000E+00    1.71027E+03
 1.28967E+00    1.73947E+03
 1.32439E+00    1.75077E+03
 1.32822E+00    1.75486E+03
 1.40000E+00    1.91238E+03
 1.50041E+00    1.97141E+03
 1.60000E+00    2.05115E+03
 1.64814E+00    2.05023E+03
 1.69200E+00    2.04956E+03
 1.77462E+00    2.12576E+03
 1.80000E+00    2.16321E+03
 1.88212E+00    2.26672E+03
 1.89220E+00    2.27946E+03
 2.00000E+00    2.48130E+03
 2.20000E+00    2.51079E+03
 2.40000E+00    2.53284E+03
 2.60000E+00    2.55071E+03
 2.80000E+00    2.56631E+03
 3.00000E+00    2.57974E+03
 3.25000E+00    2.59354E+03
 3.50000E+00    2.60550E+03
 3.75000E+00    2.61272E+03
 4.00000E+00    2.61527E+03
 4.25000E+00    2.61197E+03
 4.50000E+00    2.60232E+03
 4.75000E+00    2.58723E+03
 5.00000E+00    2.56706E+03
 5.43974E+00    2.52340E+03
 5.50000E+00    2.51742E+03
 5.54798E+00    2.51226E+03
 6.00000E+00    2.46370E+03
 6.50000E+00    2.41452E+03
 7.00000E+00    2.37361E+03
 7.50000E+00    2.34241E+03
 7.68213E+00    2.33393E+03
 8.00000E+00    2.31946E+03
 8.50000E+00    2.30211E+03
 8.75162E+00    2.29547E+03
 9.00000E+00    2.28891E+03
 9.50000E+00    2.27718E+03
 1.00000E+01    2.26659E+03
 1.01283E+01    2.23215E+03
 1.10000E+01    2.24546E+03
 1.20000E+01    2.22446E+03
 1.30000E+01    2.20455E+03
 1.40000E+01    2.18494E+03
 1.50000E+01    2.16620E+03
 1.50590E+01    2.16513E+03
 1.60000E+01    2.14803E+03
 1.70000E+01    2.13242E+03
 1.77925E+01    2.12233E+03
 1.80000E+01    2.11970E+03
 1.90000E+01    2.10808E+03
 2.00000E+01    2.09675E+03
