# n + Xe126 : (n,xa)    
# jendl4.0   S.Kunieda, A.Ichihara, K.Shibata+ EVAL-FEB22
# 
# # energies =    62
#   E(MeV)        xs(mb) 
 3.91748E-01    6.44251E-05
 4.00000E-01    6.62475E-05
 4.50000E-01    7.72887E-05
 5.00000E-01    8.83300E-05
 5.50000E-01    9.80300E-05
 6.00000E-01    1.11300E-04
 6.50000E-01    1.29000E-04
 7.00000E-01    1.50200E-04
 7.50000E-01    1.76800E-04
 8.00000E-01    2.08000E-04
 8.50000E-01    2.46500E-04
 8.86928E-01    2.70577E-04
 9.00000E-01    2.79100E-04
 9.49516E-01    3.12573E-04
 9.50000E-01    3.12900E-04
 1.00000E+00    6.36600E-04
 1.20000E+00    8.88000E-04
 1.32439E+00    9.56848E-04
 1.32822E+00    9.58968E-04
 1.40000E+00    9.98700E-04
 1.50041E+00    1.32118E-03
 1.60000E+00    1.64100E-03
 1.64814E+00    1.87279E-03
 1.69200E+00    2.08397E-03
 1.77462E+00    2.48181E-03
 1.80000E+00    2.60400E-03
 1.88212E+00    3.19484E-03
 1.89220E+00    3.26737E-03
 2.00000E+00    4.04300E-03
 2.20000E+00    6.04400E-03
 2.40000E+00    8.74200E-03
 2.60000E+00    1.25800E-02
 2.80000E+00    1.70400E-02
 3.00000E+00    2.25300E-02
 3.25000E+00    3.10900E-02
 3.50000E+00    4.14900E-02
 3.75000E+00    5.36900E-02
 4.00000E+00    6.86200E-02
 4.25000E+00    8.41300E-02
 4.50000E+00    1.04100E-01
 4.75000E+00    1.21000E-01
 5.00000E+00    1.43900E-01
 5.50000E+00    1.86300E-01
 6.00000E+00    2.28900E-01
 6.50000E+00    2.70101E-01
 7.00000E+00    3.09214E-01
 7.50000E+00    3.48721E-01
 8.00000E+00    3.95641E-01
 8.50000E+00    4.57151E-01
 9.00000E+00    5.36050E-01
 9.50000E+00    6.57790E-01
 1.00000E+01    8.31930E-01
 1.10000E+01    1.33450E+00
 1.20000E+01    2.01970E+00
 1.30000E+01    3.00150E+00
 1.40000E+01    4.25090E+00
 1.50000E+01    5.75400E+00
 1.60000E+01    7.42500E+00
 1.70000E+01    9.18800E+00
 1.80000E+01    1.10030E+01
 1.90000E+01    1.28410E+01
 2.00000E+01    1.46810E+01
