# n + Nd150 : (n,xa)    
# jendl4.0   N.Iwamoto,A.Zukeran,K.Shibata     EVAL-Dec09
# 
# # energies =    88
#   E(MeV)        xs(mb) 
 1.05000E-01    2.24908E-14
 1.10000E-01    2.32980E-14
 1.20000E-01    2.50880E-14
 1.30000E-01    2.70610E-14
 1.31086E-01    2.73170E-14
 1.40000E-01    1.81150E-14
 1.50000E-01    1.79880E-14
 1.60000E-01    1.83110E-14
 1.70000E-01    1.89170E-14
 1.80000E-01    1.97110E-14
 1.90000E-01    2.07080E-14
 2.00000E-01    2.18630E-14
 2.25000E-01    2.58130E-14
 2.50000E-01    3.09500E-14
 2.75000E-01    3.74420E-14
 3.00000E-01    4.54850E-14
 3.84016E-01    9.24830E-14
 4.00000E-01    1.04540E-13
 5.00000E-01    2.39500E-13
 6.00000E-01    5.50600E-13
 6.79914E-01    1.06340E-12
 7.00000E-01    1.21320E-12
 7.25247E-01    1.46890E-12
 8.00000E-01    2.61326E-12
 8.56383E-01    4.04760E-12
 8.58679E-01    4.02960E-12
 9.00000E-01    4.67670E-12
 9.41150E-01    6.12390E-12
 1.00000E+00    8.71810E-12
 1.06909E+00    1.39282E-11
 1.06910E+00    1.39290E-11
 1.10000E+00    1.64910E-11
 1.13660E+00    2.08163E-11
 1.13730E+00    2.08990E-11
 1.14546E+00    2.19820E-11
 1.19026E+00    2.92072E-11
 1.20000E+00    3.07780E-11
 1.20871E+00    3.24710E-11
 1.25841E+00    4.34780E-11
 1.29255E+00    5.30660E-11
 1.30000E+00    5.45470E-11
 1.31630E+00    5.97100E-11
 1.32687E+00    6.30580E-11
 1.40000E+00    9.41840E-11
 1.50000E+00    1.64940E-10
 1.60000E+00    2.78100E-10
 1.70000E+00    4.60180E-10
 1.80000E+00    7.47190E-10
 1.90000E+00    1.19060E-09
 2.00000E+00    1.86430E-09
 2.25000E+00    5.17670E-09
 2.50000E+00    1.38440E-08
 2.75000E+00    3.29270E-08
 3.00000E+00    7.10780E-08
 3.50000E+00    2.87955E-07
 4.00000E+00    9.39348E-07
 4.50000E+00    2.57494E-06
 5.00000E+00    6.14300E-06
 5.50000E+00    1.31947E-05
 6.00000E+00    2.65112E-05
 6.50000E+00    5.17892E-05
 7.00000E+00    1.02421E-04
 7.50000E+00    2.11908E-04
 8.00000E+00    4.53338E-04
 8.50000E+00    9.88056E-04
 9.00000E+00    2.15718E-03
 9.50000E+00    4.62200E-03
 1.00000E+01    9.57765E-03
 1.05000E+01    1.91233E-02
 1.10000E+01    3.57398E-02
 1.15000E+01    6.60130E-02
 1.20000E+01    1.16761E-01
 1.25000E+01    1.97609E-01
 1.30000E+01    3.19876E-01
 1.35000E+01    4.95474E-01
 1.40000E+01    7.35332E-01
 1.45000E+01    1.04800E+00
 1.50000E+01    1.43849E+00
 1.55000E+01    1.90908E+00
 1.60000E+01    2.45575E+00
 1.65000E+01    3.06893E+00
 1.70000E+01    3.74852E+00
 1.75000E+01    4.48137E+00
 1.80000E+01    5.25716E+00
 1.85000E+01    6.06200E+00
 1.90000E+01    6.89437E+00
 1.95000E+01    7.73791E+00
 2.00000E+01    8.58448E+00
