# n + Ce140 : (n,xa)    
# jendl.ad   kunieda                           EVAL-Mar14
# 
# # energies =    67
#   E(MeV)        xs(mb) 
 1.50000E-01    0.00000E+00
 2.00000E-01    0.00000E+00
 3.00000E-01    0.00000E+00
 4.00000E-01    0.00000E+00
 5.00000E-01    0.00000E+00
 6.00000E-01    0.00000E+00
 7.00000E-01    0.00000E+00
 8.00000E-01    0.00000E+00
 9.00000E-01    0.00000E+00
 1.00000E+00    0.00000E+00
 1.20000E+00    0.00000E+00
 1.40000E+00    0.00000E+00
 1.60000E+00    0.00000E+00
 1.60774E+00    0.00000E+00
 1.80000E+00    1.32691E-09
 1.91703E+00    2.25649E-09
 2.00000E+00    2.91554E-09
 2.09827E+00    3.69611E-09
 2.12305E+00    3.89294E-09
 2.20000E+00    4.50417E-09
 2.36481E+00    5.81328E-09
 2.36675E+00    5.82869E-09
 2.40000E+00    6.09280E-09
 2.42940E+00    6.32633E-09
 2.48184E+00    6.74287E-09
 2.48185E+00    6.74295E-09
 2.49881E+00    6.87767E-09
 2.53390E+00    7.15639E-09
 2.53961E+00    7.20175E-09
 2.56559E+00    7.40811E-09
 2.56560E+00    7.40819E-09
 2.70000E+00    8.47575E-09
 3.00000E+00    1.08587E-08
 3.50000E+00    1.48303E-08
 4.00000E+00    1.06080E-06
 4.50000E+00    1.14016E-05
 5.00000E+00    1.32567E-04
 5.50000E+00    5.69094E-04
 6.00000E+00    1.41296E-03
 6.50000E+00    3.56891E-03
 7.00000E+00    7.12594E-03
 7.50000E+00    1.17706E-02
 8.00000E+00    1.73735E-02
 8.50000E+00    2.33756E-02
 9.00000E+00    3.26755E-02
 9.50000E+00    4.33924E-02
 1.00000E+01    6.15044E-02
 1.05000E+01    9.08591E-02
 1.10000E+01    1.27552E-01
 1.15000E+01    1.89842E-01
 1.20000E+01    2.74739E-01
 1.25000E+01    3.81188E-01
 1.30000E+01    5.17917E-01
 1.35000E+01    6.81142E-01
 1.40000E+01    8.76407E-01
 1.45000E+01    1.09948E+00
 1.50000E+01    1.34637E+00
 1.55000E+01    1.60881E+00
 1.60000E+01    1.89179E+00
 1.65000E+01    2.18856E+00
 1.70000E+01    2.49744E+00
 1.75000E+01    2.81051E+00
 1.80000E+01    3.12825E+00
 1.85000E+01    3.44367E+00
 1.90000E+01    3.76511E+00
 1.95000E+01    4.07643E+00
 2.00000E+01    4.39143E+00
