# n + Hf176 : (n,xn)    
# jendl4.0   K. Shibata (JAEA)                 EVAL-JUL09
# 
# # energies =    82
#   E(MeV)        xs(mb) 
 8.88575E-02    0.00000E+00
 9.00000E-02    1.06300E+02
 1.00000E-01    1.51500E+02
 2.00000E-01    7.12900E+02
 2.91844E-01    1.10884E+03
 3.00000E-01    1.14423E+03
 4.00000E-01    1.46733E+03
 5.00000E-01    1.72661E+03
 6.00000E-01    1.92940E+03
 6.00241E-01    1.92975E+03
 7.00000E-01    2.07553E+03
 8.00000E-01    2.17845E+03
 9.00000E-01    2.25091E+03
 1.00000E+00    2.29797E+03
 1.00346E+00    2.29725E+03
 1.15653E+00    2.26502E+03
 1.23366E+00    2.31588E+03
 1.25000E+00    2.40898E+03
 1.25483E+00    2.40024E+03
 1.30053E+00    2.35285E+03
 1.32088E+00    2.33889E+03
 1.34070E+00    2.33719E+03
 1.34900E+00    2.33652E+03
 1.36981E+00    2.35640E+03
 1.38728E+00    2.38776E+03
 1.39816E+00    2.41902E+03
 1.41261E+00    2.46338E+03
 1.42103E+00    2.49251E+03
 1.45409E+00    2.62039E+03
 1.48956E+00    2.79364E+03
 1.50000E+00    2.84463E+03
 1.51444E+00    2.83022E+03
 1.51722E+00    2.82746E+03
 1.54139E+00    2.80436E+03
 1.54913E+00    2.79785E+03
 1.56824E+00    2.78377E+03
 1.58660E+00    2.77024E+03
 1.60062E+00    2.76266E+03
 1.61621E+00    2.75581E+03
 1.63789E+00    2.74628E+03
 1.65285E+00    2.73981E+03
 1.66254E+00    2.73782E+03
 1.68193E+00    2.73407E+03
 1.68556E+00    2.73419E+03
 1.70966E+00    2.73726E+03
 1.71437E+00    2.73786E+03
 1.72024E+00    2.74021E+03
 1.73192E+00    2.74719E+03
 1.73770E+00    2.75201E+03
 1.74238E+00    2.75610E+03
 1.75903E+00    2.77139E+03
 1.77156E+00    2.78421E+03
 1.77702E+00    2.78982E+03
 1.78708E+00    2.80105E+03
 2.00000E+00    3.32133E+03
 2.50000E+00    3.31072E+03
 3.00000E+00    3.25609E+03
 3.50000E+00    3.18004E+03
 4.00000E+00    3.12124E+03
 4.50000E+00    3.07858E+03
 5.00000E+00    3.04816E+03
 5.50000E+00    3.02271E+03
 6.00000E+00    2.99782E+03
 6.50000E+00    2.97179E+03
 7.00000E+00    2.94490E+03
 7.50000E+00    2.91771E+03
 8.00000E+00    2.89276E+03
 8.50000E+00    2.91089E+03
 9.00000E+00    3.27854E+03
 9.50000E+00    3.78931E+03
 1.00000E+01    4.12993E+03
 1.10000E+01    4.45946E+03
 1.20000E+01    4.60637E+03
 1.30000E+01    4.68494E+03
 1.40000E+01    4.72374E+03
 1.45000E+01    4.73345E+03
 1.50000E+01    4.73606E+03
 1.60000E+01    4.74879E+03
 1.70000E+01    4.91321E+03
 1.80000E+01    5.18744E+03
 1.90000E+01    5.43686E+03
 2.00000E+01    5.62028E+03
