# n + Sn117 : (n,xp)    
# jendl4.0   N.Iwamoto,K.Shibata               EVAL-Dec09
# 
# # energies =    88
#   E(MeV)        xs(mb) 
 1.05000E-01    0.00000E+00
 1.10000E-01    0.00000E+00
 1.20000E-01    0.00000E+00
 1.30000E-01    0.00000E+00
 1.40000E-01    0.00000E+00
 1.50000E-01    0.00000E+00
 1.59930E-01    0.00000E+00
 1.60000E-01    0.00000E+00
 1.70000E-01    0.00000E+00
 1.80000E-01    0.00000E+00
 1.90000E-01    0.00000E+00
 2.00000E-01    0.00000E+00
 2.25000E-01    0.00000E+00
 2.50000E-01    0.00000E+00
 2.75000E-01    0.00000E+00
 3.00000E-01    0.00000E+00
 3.17294E-01    0.00000E+00
 4.00000E-01    0.00000E+00
 5.00000E-01    0.00000E+00
 6.00000E-01    0.00000E+00
 7.00000E-01    1.50319E-12
 7.17679E-01    2.73146E-12
 8.00000E-01    8.45080E-12
 9.00000E-01    1.53984E-11
 1.00000E+00    2.23460E-11
 1.01320E+00    2.32631E-11
 1.02872E+00    2.43413E-11
 1.10000E+00    2.92935E-11
 1.18988E+00    3.55378E-11
 1.20000E+00    3.62409E-11
 1.30000E+00    4.31881E-11
 1.31555E+00    4.42682E-11
 1.40000E+00    5.01356E-11
 1.45868E+00    5.42122E-11
 1.48127E+00    5.57818E-11
 1.50000E+00    5.70831E-11
 1.50971E+00    5.77578E-11
 1.50972E+00    5.77585E-11
 1.52313E+00    5.86902E-11
 1.54320E+00    6.00846E-11
 1.59187E+00    6.34660E-11
 1.60000E+00    6.40308E-11
 1.60170E+00    6.41489E-11
 1.60271E+00    6.42191E-11
 1.60685E+00    6.45067E-11
 1.63942E+00    6.67694E-11
 1.70000E+00    7.09780E-11
 1.80000E+00    7.79250E-11
 1.90000E+00    8.48730E-11
 2.00000E+00    9.18310E-11
 2.25000E+00    1.24880E-10
 2.50000E+00    1.64200E-10
 2.75000E+00    1.32299E-05
 3.00000E+00    6.68135E-05
 3.50000E+00    7.11312E-04
 4.00000E+00    3.75426E-03
 4.50000E+00    1.22640E-02
 5.00000E+00    2.84646E-02
 5.50000E+00    5.17447E-02
 6.00000E+00    7.98714E-02
 6.50000E+00    1.12532E-01
 7.00000E+00    1.50178E-01
 7.50000E+00    2.15109E-01
 8.00000E+00    3.28189E-01
 8.50000E+00    5.22198E-01
 9.00000E+00    8.34188E-01
 9.50000E+00    1.29980E+00
 1.00000E+01    1.94891E+00
 1.05000E+01    2.80505E+00
 1.10000E+01    3.88174E+00
 1.15000E+01    5.19501E+00
 1.20000E+01    6.74644E+00
 1.25000E+01    8.54847E+00
 1.30000E+01    1.05931E+01
 1.35000E+01    1.28838E+01
 1.40000E+01    1.54173E+01
 1.45000E+01    1.81625E+01
 1.50000E+01    2.11401E+01
 1.55000E+01    2.42775E+01
 1.60000E+01    2.76264E+01
 1.65000E+01    3.10828E+01
 1.70000E+01    3.47262E+01
 1.75000E+01    3.84435E+01
 1.80000E+01    4.23231E+01
 1.85000E+01    4.62734E+01
 1.90000E+01    5.03867E+01
 1.95000E+01    5.45712E+01
 2.00000E+01    5.89178E+01
