# n + Ce142 : (n,xp)    
# jendl4.0   S.Kunieda, A.Ichihara, K.Shibata+ EVAL-FEB10
# 
# # energies =    62
#   E(MeV)        xs(mb) 
 6.45844E-01    0.00000E+00
 6.50000E-01    0.00000E+00
 7.00000E-01    0.00000E+00
 7.50000E-01    0.00000E+00
 8.00000E-01    0.00000E+00
 8.50000E-01    0.00000E+00
 9.00000E-01    0.00000E+00
 9.50000E-01    0.00000E+00
 1.00000E+00    0.00000E+00
 1.20000E+00    0.00000E+00
 1.22805E+00    0.00000E+00
 1.40000E+00    0.00000E+00
 1.54702E+00    0.00000E+00
 1.60000E+00    0.00000E+00
 1.66435E+00    0.00000E+00
 1.75438E+00    0.00000E+00
 1.80000E+00    0.00000E+00
 2.00000E+00    0.00000E+00
 2.01855E+00    0.00000E+00
 2.02852E+00    0.00000E+00
 2.04503E+00    0.00000E+00
 2.05802E+00    0.00000E+00
 2.12903E+00    0.00000E+00
 2.14010E+00    0.00000E+00
 2.19711E+00    0.00000E+00
 2.20000E+00    0.00000E+00
 2.20275E+00    0.00000E+00
 2.29520E+00    0.00000E+00
 2.38131E+00    0.00000E+00
 2.39138E+00    0.00000E+00
 2.40000E+00    0.00000E+00
 2.60000E+00    0.00000E+00
 2.80000E+00    0.00000E+00
 3.00000E+00    0.00000E+00
 3.25000E+00    0.00000E+00
 3.50000E+00    0.00000E+00
 3.75000E+00    0.00000E+00
 4.00000E+00    0.00000E+00
 4.25000E+00    0.00000E+00
 4.50000E+00    0.00000E+00
 4.75000E+00    0.00000E+00
 5.00000E+00    0.00000E+00
 5.50000E+00    0.00000E+00
 6.00000E+00    0.00000E+00
 6.50000E+00    0.00000E+00
 7.00000E+00    2.77800E-05
 7.50000E+00    5.01300E-04
 8.00000E+00    1.85200E-03
 8.50000E+00    6.27600E-03
 9.00000E+00    1.67900E-02
 9.50000E+00    4.41800E-02
 1.00000E+01    9.31900E-02
 1.10000E+01    3.58600E-01
 1.20000E+01    1.04603E+00
 1.30000E+01    2.46048E+00
 1.40000E+01    4.87757E+00
 1.50000E+01    8.47130E+00
 1.60000E+01    1.33131E+01
 1.70000E+01    1.96560E+01
 1.80000E+01    2.73140E+01
 1.90000E+01    3.61900E+01
 2.00000E+01    4.62000E+01
