# n + Ce142 : (n,non)   
# jendl4.0   S.Kunieda, A.Ichihara, K.Shibata+ EVAL-FEB10
# uncertainties: n
# # energies =    95
#   E(MeV)       xs(mb) 
 1.50000E-02    0.00000E+00
 1.50000E-02    2.20355E+01
 1.75000E-02    1.93562E+01
 2.00000E-02    1.73000E+01
 3.00000E-02    1.71500E+01
 4.00000E-02    1.53800E+01
 5.00000E-02    1.42000E+01
 6.00000E-02    1.34000E+01
 7.00000E-02    1.27400E+01
 8.00000E-02    1.21600E+01
 9.00000E-02    1.16200E+01
 1.00000E-01    1.18100E+01
 1.20000E-01    1.14600E+01
 1.40000E-01    1.10200E+01
 1.60000E-01    1.06100E+01
 1.80000E-01    1.02700E+01
 2.00000E-01    9.99200E+00
 2.50000E-01    9.57000E+00
 3.00000E-01    9.32200E+00
 3.50000E-01    9.20000E+00
 4.00000E-01    9.15800E+00
 4.50000E-01    9.61100E+00
 5.00000E-01    1.02800E+01
 5.50000E-01    1.07200E+01
 6.00000E-01    1.11800E+01
 6.45844E-01    9.74493E+00
 6.50000E-01    1.60029E+02
 7.00000E-01    3.95388E+02
 7.50000E-01    5.05807E+02
 8.00000E-01    5.86314E+02
 8.50000E-01    6.52882E+02
 9.00000E-01    7.12176E+02
 9.50000E-01    7.67634E+02
 1.00000E+00    8.20947E+02
 1.20000E+00    1.02168E+03
 1.22805E+00    1.04014E+03
 1.40000E+00    1.22488E+03
 1.54702E+00    1.29034E+03
 1.60000E+00    1.46063E+03
 1.66435E+00    1.48813E+03
 1.75438E+00    1.59175E+03
 1.80000E+00    1.67171E+03
 2.00000E+00    1.79745E+03
 2.01855E+00    1.78365E+03
 2.02852E+00    1.78198E+03
 2.04503E+00    1.78665E+03
 2.05802E+00    1.79294E+03
 2.12903E+00    1.86392E+03
 2.14010E+00    1.87805E+03
 2.19711E+00    1.97969E+03
 2.20000E+00    1.99753E+03
 2.20275E+00    2.00026E+03
 2.29520E+00    2.12002E+03
 2.38131E+00    2.24544E+03
 2.39138E+00    2.26668E+03
 2.40000E+00    2.28633E+03
 2.60000E+00    2.31633E+03
 2.80000E+00    2.34398E+03
 3.00000E+00    2.37846E+03
 3.25000E+00    2.42623E+03
 3.50000E+00    2.46811E+03
 3.74781E+00    2.49249E+03
 3.75000E+00    2.49271E+03
 4.00000E+00    2.49696E+03
 4.25000E+00    2.47720E+03
 4.50000E+00    2.44279E+03
 4.75000E+00    2.40133E+03
 5.00000E+00    2.35803E+03
 5.50000E+00    2.28089E+03
 6.00000E+00    2.22586E+03
 6.50000E+00    2.19816E+03
 6.71203E+00    2.19492E+03
 7.00000E+00    2.19051E+03
 7.14637E+00    2.16126E+03
 7.22065E+00    2.14642E+03
 7.50000E+00    2.19620E+03
 8.00000E+00    2.20571E+03
 8.18477E+00    2.20840E+03
 8.50000E+00    2.21297E+03
 8.95241E+00    2.21467E+03
 9.00000E+00    2.21484E+03
 9.50000E+00    2.20993E+03
 1.00000E+01    2.20204E+03
 1.10000E+01    2.18121E+03
 1.20000E+01    2.16531E+03
 1.26874E+01    2.15982E+03
 1.30000E+01    2.15732E+03
 1.34481E+01    2.15705E+03
 1.40000E+01    2.15672E+03
 1.50000E+01    2.16003E+03
 1.60000E+01    2.16298E+03
 1.70000E+01    2.16392E+03
 1.80000E+01    2.16022E+03
 1.90000E+01    2.15239E+03
 2.00000E+01    2.14127E+03
