# n + Mo 95 : (n,el)    
# jendl4.0   K.Shibata, A.Ichihara, S.Kunieda+ EVAL-MAR09
# uncertainties: n
# # energies =   171
#   E(MeV)       xs(mb) 
 1.00000E-11    1.15349E+04
 1.00000E-07    6.44876E+03
 4.13990E-07    6.42199E+03
 5.31580E-07    6.40845E+03
 6.82560E-07    6.39150E+03
 8.76420E-07    6.37068E+03
 1.12540E-06    6.34399E+03
 1.44500E-06    6.30972E+03
 1.85540E-06    6.26645E+03
 2.37240E-06    6.21374E+03
 3.05900E-06    6.14642E+03
 3.92790E-06    6.06058E+03
 5.04350E-06    5.95036E+03
 6.47600E-06    5.80912E+03
 8.31530E-06    5.63276E+03
 1.06770E-05    5.40821E+03
 1.37100E-05    5.11966E+03
 1.76030E-05    4.72652E+03
 2.26030E-05    4.15781E+03
 2.92030E-05    3.61914E+03
 3.72670E-05    6.90073E+05
 4.78510E-05    2.41641E+04
 6.14420E-05    1.00559E+04
 7.88930E-05    8.02211E+03
 1.01300E-04    7.13757E+03
 1.30070E-04    6.98488E+03
 1.67020E-04    6.43259E+03
 2.14450E-04    6.00996E+03
 2.75360E-04    5.07820E+03
 3.53580E-04    2.12257E+04
 4.54000E-04    7.59138E+03
 5.82950E-04    1.83304E+04
 7.48520E-04    7.73920E+03
 9.61120E-04    8.35027E+03
 1.23410E-03    1.23127E+04
 1.58460E-03    1.54591E+04
 2.03470E-03    9.06713E+03
 2.24870E-03    8.96448E+03
 2.48520E-03    8.88084E+03
 2.61260E-03    8.82128E+03
 2.74650E-03    8.72616E+03
 3.03540E-03    8.62683E+03
 3.35460E-03    8.54291E+03
 3.70740E-03    8.43296E+03
 4.30740E-03    8.30314E+03
 5.53080E-03    8.18439E+03
 7.10170E-03    8.11906E+03
 9.11880E-03    8.10811E+03
 1.17090E-02    8.15161E+03
 1.50340E-02    8.21150E+03
 1.93050E-02    8.27040E+03
 2.18750E-02    8.31599E+03
 2.35790E-02    8.34085E+03
 2.41760E-02    8.35380E+03
 2.47880E-02    8.37388E+03
 2.60580E-02    8.39764E+03
 2.70000E-02    8.42372E+03
 2.85000E-02    8.47380E+03
 3.18280E-02    8.53032E+03
 3.43070E-02    8.61489E+03
 4.08680E-02    8.72067E+03
 4.63090E-02    8.81429E+03
 5.24750E-02    8.88867E+03
 5.65620E-02    8.98477E+03
 6.73790E-02    9.07684E+03
 7.20000E-02    9.13693E+03
 7.95000E-02    9.18688E+03
 8.25000E-02    9.21541E+03
 8.65170E-02    9.27366E+03
 9.80370E-02    9.33341E+03
 1.11090E-01    9.35063E+03
 1.16790E-01    9.36076E+03
 1.22770E-01    9.37142E+03
 1.29070E-01    9.38262E+03
 1.35690E-01    9.39439E+03
 1.42640E-01    9.40677E+03
 1.49960E-01    9.41978E+03
 1.57640E-01    9.43345E+03
 1.65730E-01    9.44783E+03
 1.74220E-01    9.46295E+03
 1.83160E-01    9.47885E+03
 1.92550E-01    9.49430E+03
 2.02420E-01    9.47063E+03
 2.12800E-01    9.39438E+03
 2.23710E-01    9.31041E+03
 2.35180E-01    9.22213E+03
 2.47240E-01    9.08055E+03
 2.73240E-01    8.92921E+03
 2.87250E-01    8.84903E+03
 2.94520E-01    8.81159E+03
 2.97200E-01    8.79664E+03
 2.98500E-01    8.77965E+03
 3.01970E-01    8.67657E+03
 3.33730E-01    8.47917E+03
 3.68830E-01    8.31831E+03
 3.87740E-01    8.20523E+03
 4.07620E-01    8.05074E+03
 4.50490E-01    7.83284E+03
 4.97870E-01    7.65530E+03
 5.23400E-01    7.53544E+03
 5.50230E-01    7.41451E+03
 5.78440E-01    7.28736E+03
 6.08100E-01    7.16963E+03
 6.39280E-01    7.06261E+03
 6.72060E-01    6.95011E+03
 7.06510E-01    6.83184E+03
 7.42740E-01    6.70739E+03
 7.80820E-01    6.51975E+03
 8.20850E-01    6.29035E+03
 8.62940E-01    6.06781E+03
 9.07180E-01    5.82069E+03
 9.61640E-01    5.58601E+03
 1.00260E+00    5.28801E+03
 1.10800E+00    4.98827E+03
 1.16480E+00    4.78452E+03
 1.22460E+00    4.59683E+03
 1.28730E+00    4.44504E+03
 1.35340E+00    4.30076E+03
 1.42270E+00    4.15488E+03
 1.49570E+00    4.00120E+03
 1.57240E+00    3.83734E+03
 1.65300E+00    3.65894E+03
 1.73770E+00    3.47035E+03
 1.82680E+00    3.28127E+03
 1.92050E+00    3.09139E+03
 2.01900E+00    2.92712E+03
 2.12250E+00    2.77201E+03
 2.23130E+00    2.64804E+03
 2.30690E+00    2.58288E+03
 2.34570E+00    2.55045E+03
 2.36530E+00    2.52855E+03
 2.38520E+00    2.47294E+03
 2.46600E+00    2.37229E+03
 2.59240E+00    2.28426E+03
 2.72530E+00    2.19454E+03
 2.86500E+00    2.10508E+03
 3.01190E+00    2.04521E+03
 3.16640E+00    2.00629E+03
 3.32870E+00    1.95150E+03
 3.67880E+00    1.91680E+03
 4.06570E+00    1.90388E+03
 4.49330E+00    1.91350E+03
 4.72370E+00    1.93842E+03
 4.96590E+00    1.96984E+03
 5.22050E+00    2.01165E+03
 5.48810E+00    2.05570E+03
 5.76950E+00    2.10056E+03
 6.06530E+00    2.15142E+03
 6.37630E+00    2.19860E+03
 6.59240E+00    2.22786E+03
 6.70320E+00    2.26793E+03
 7.04690E+00    2.33096E+03
 7.40820E+00    2.38619E+03
 7.78800E+00    2.42000E+03
 8.18730E+00    2.45625E+03
 8.60710E+00    2.49527E+03
 9.04840E+00    2.52224E+03
 9.51230E+00    2.54103E+03
 1.00000E+01    2.54798E+03
 1.05130E+01    2.54230E+03
 1.10520E+01    2.52434E+03
 1.16180E+01    2.49619E+03
 1.22140E+01    2.44992E+03
 1.28400E+01    2.39024E+03
 1.34990E+01    2.33109E+03
 1.38400E+01    2.28981E+03
 1.41910E+01    2.24190E+03
 1.45500E+01    2.19328E+03
 1.49180E+01    2.11357E+03
 1.56830E+01    2.00248E+03
 1.64870E+01    1.90919E+03
