# n + Ag  0 : (n,xd)
# jendl.ad   N.Iwamoto                         EVAL-Apr14
#
# # energies =    91
#   E(MeV)          xs(mb) 
 8.88494E-02    0.00000E+00
 9.00000E-02    0.00000E+00
 1.00000E-01    0.00000E+00
 1.05000E-01    0.00000E+00
 1.10000E-01    0.00000E+00
 1.20000E-01    0.00000E+00
 1.30000E-01    0.00000E+00
 1.33969E-01    0.00000E+00
 1.40000E-01    0.00000E+00
 1.50000E-01    0.00000E+00
 1.60000E-01    0.00000E+00
 1.70000E-01    0.00000E+00
 1.80000E-01    0.00000E+00
 1.90000E-01    0.00000E+00
 2.00000E-01    0.00000E+00
 2.25000E-01    0.00000E+00
 2.50000E-01    0.00000E+00
 2.75000E-01    0.00000E+00
 3.00000E-01    0.00000E+00
 3.14264E-01    0.00000E+00
 4.00000E-01    0.00000E+00
 4.19056E-01    0.00000E+00
 4.23890E-01    0.00000E+00
 5.00000E-01    0.00000E+00
 6.00000E-01    0.00000E+00
 7.00000E-01    0.00000E+00
 7.08411E-01    0.00000E+00
 7.12539E-01    0.00000E+00
 7.13548E-01    0.00000E+00
 7.31059E-01    0.00000E+00
 7.42100E-01    0.00000E+00
 7.80664E-01    0.00000E+00
 7.96308E-01    0.00000E+00
 8.00000E-01    0.00000E+00
 8.70751E-01    0.00000E+00
 8.77523E-01    0.00000E+00
 8.78058E-01    0.00000E+00
 8.98243E-01    0.00000E+00
 9.00000E-01    0.00000E+00
 9.19438E-01    0.00000E+00
 9.20548E-01    0.00000E+00
 9.39421E-01    0.00000E+00
 1.00000E+00    0.00000E+00
 1.10000E+00    0.00000E+00
 1.20000E+00    0.00000E+00
 1.30000E+00    0.00000E+00
 1.40000E+00    0.00000E+00
 1.50000E+00    0.00000E+00
 1.60000E+00    0.00000E+00
 1.70000E+00    0.00000E+00
 1.80000E+00    0.00000E+00
 1.90000E+00    0.00000E+00
 2.00000E+00    0.00000E+00
 2.25000E+00    0.00000E+00
 2.50000E+00    0.00000E+00
 2.75000E+00    0.00000E+00
 3.00000E+00    0.00000E+00
 3.50000E+00    0.00000E+00
 4.00000E+00    2.79424E-12
 4.50000E+00    7.96344E-12
 5.00000E+00    1.37753E-11
 5.50000E+00    5.09789E-09
 6.00000E+00    2.20107E-07
 6.50000E+00    2.55205E-06
 7.00000E+00    1.37517E-05
 7.50000E+00    4.66432E-05
 8.00000E+00    1.31872E-04
 8.50000E+00    4.38803E-04
 9.00000E+00    1.80204E-03
 9.50000E+00    7.12367E-03
 1.00000E+01    2.37972E-02
 1.05000E+01    6.40929E-02
 1.10000E+01    1.50091E-01
 1.15000E+01    3.04424E-01
 1.20000E+01    5.46966E-01
 1.25000E+01    8.78883E-01
 1.30000E+01    1.31582E+00
 1.35000E+01    1.84527E+00
 1.40000E+01    2.45695E+00
 1.45000E+01    3.13573E+00
 1.50000E+01    3.87214E+00
 1.55000E+01    4.55797E+00
 1.60000E+01    5.43675E+00
 1.65000E+01    6.24887E+00
 1.70000E+01    7.12066E+00
 1.75000E+01    7.90237E+00
 1.80000E+01    8.72514E+00
 1.85000E+01    9.57222E+00
 1.90000E+01    1.03794E+01
 1.95000E+01    1.12857E+01
 2.00000E+01    1.20459E+01
