# n + Ag  0 : (n,n')m
# jendl.ad   N.Iwamoto                         EVAL-Apr14
# uncertainties: n
# # energies =    90
#   E(MeV)          xs(mb) 
 8.88494E-02    0.00000E+00
 9.00000E-02    9.09626E-02
 1.00000E-01    1.63449E+00
 1.10000E-01    4.00275E+00
 1.20000E-01    6.50161E+00
 1.30000E-01    9.12700E+00
 1.33969E-01    1.02627E+01
 1.40000E-01    1.21041E+01
 1.50000E-01    1.52316E+01
 1.60000E-01    1.84881E+01
 1.70000E-01    2.18787E+01
 1.80000E-01    2.54010E+01
 1.90000E-01    2.90594E+01
 2.00000E-01    3.28775E+01
 2.25000E-01    4.31183E+01
 2.50000E-01    5.41423E+01
 2.75000E-01    6.60720E+01
 3.00000E-01    7.86780E+01
 3.14264E-01    8.62628E+01
 4.00000E-01    1.18548E+02
 4.19056E-01    1.26484E+02
 4.23890E-01    1.27348E+02
 5.00000E-01    1.40579E+02
 6.00000E-01    1.65810E+02
 7.00000E-01    1.93651E+02
 7.08411E-01    1.96029E+02
 7.12539E-01    1.96745E+02
 7.13548E-01    1.96942E+02
 7.31059E-01    1.99891E+02
 7.42100E-01    2.07006E+02
 7.80664E-01    2.76366E+02
 7.96308E-01    2.84241E+02
 8.00000E-01    2.85352E+02
 8.70751E-01    3.10400E+02
 8.77523E-01    3.11899E+02
 8.78058E-01    3.12506E+02
 8.98243E-01    3.19361E+02
 9.00000E-01    3.20028E+02
 9.19438E-01    3.26409E+02
 9.20548E-01    3.26689E+02
 9.39421E-01    3.34486E+02
 1.00000E+00    3.60312E+02
 1.10000E+00    3.90961E+02
 1.20000E+00    4.12404E+02
 1.30000E+00    4.37994E+02
 1.40000E+00    4.80488E+02
 1.50000E+00    5.20690E+02
 1.60000E+00    5.51277E+02
 1.70000E+00    5.80678E+02
 1.80000E+00    6.10138E+02
 1.90000E+00    6.39990E+02
 2.00000E+00    6.72720E+02
 2.25000E+00    7.16658E+02
 2.50000E+00    7.64148E+02
 2.75000E+00    7.88198E+02
 3.00000E+00    8.25123E+02
 3.50000E+00    8.73651E+02
 4.00000E+00    9.20592E+02
 4.50000E+00    9.67332E+02
 5.00000E+00    1.01086E+03
 5.50000E+00    1.04720E+03
 6.00000E+00    1.07392E+03
 6.50000E+00    1.09118E+03
 7.00000E+00    1.10144E+03
 7.50000E+00    1.10950E+03
 8.00000E+00    1.10890E+03
 8.50000E+00    1.11930E+03
 9.00000E+00    1.13135E+03
 9.50000E+00    1.14342E+03
 1.00000E+01    1.09847E+03
 1.05000E+01    9.50131E+02
 1.10000E+01    7.79933E+02
 1.15000E+01    6.33213E+02
 1.20000E+01    5.19573E+02
 1.25000E+01    4.34471E+02
 1.30000E+01    3.72674E+02
 1.35000E+01    3.27423E+02
 1.40000E+01    2.94167E+02
 1.45000E+01    2.68500E+02
 1.50000E+01    2.48576E+02
 1.55000E+01    2.31842E+02
 1.60000E+01    2.18805E+02
 1.65000E+01    2.06711E+02
 1.70000E+01    1.96410E+02
 1.75000E+01    1.88108E+02
 1.80000E+01    1.79677E+02
 1.85000E+01    1.73443E+02
 1.90000E+01    1.68143E+02
 1.95000E+01    1.62505E+02
 2.00000E+01    1.57227E+02
