# n + Ag  0 : (n,xt)
# jendl.ad   N.Iwamoto                         EVAL-Apr14
#
# # energies =    91
#   E(MeV)          xs(mb) 
 8.88494E-02    0.00000E+00
 9.00000E-02    0.00000E+00
 1.00000E-01    0.00000E+00
 1.05000E-01    0.00000E+00
 1.10000E-01    0.00000E+00
 1.20000E-01    0.00000E+00
 1.30000E-01    0.00000E+00
 1.33969E-01    0.00000E+00
 1.40000E-01    0.00000E+00
 1.50000E-01    0.00000E+00
 1.60000E-01    0.00000E+00
 1.70000E-01    0.00000E+00
 1.80000E-01    0.00000E+00
 1.90000E-01    0.00000E+00
 2.00000E-01    0.00000E+00
 2.25000E-01    0.00000E+00
 2.50000E-01    0.00000E+00
 2.75000E-01    0.00000E+00
 3.00000E-01    0.00000E+00
 3.14264E-01    0.00000E+00
 4.00000E-01    0.00000E+00
 4.19056E-01    0.00000E+00
 4.23890E-01    0.00000E+00
 5.00000E-01    0.00000E+00
 6.00000E-01    0.00000E+00
 7.00000E-01    0.00000E+00
 7.08411E-01    0.00000E+00
 7.12539E-01    0.00000E+00
 7.13548E-01    0.00000E+00
 7.31059E-01    0.00000E+00
 7.42100E-01    0.00000E+00
 7.80664E-01    0.00000E+00
 7.96308E-01    0.00000E+00
 8.00000E-01    0.00000E+00
 8.70751E-01    0.00000E+00
 8.77523E-01    0.00000E+00
 8.78058E-01    0.00000E+00
 8.98243E-01    0.00000E+00
 9.00000E-01    0.00000E+00
 9.19438E-01    0.00000E+00
 9.20548E-01    0.00000E+00
 9.39421E-01    0.00000E+00
 1.00000E+00    0.00000E+00
 1.10000E+00    0.00000E+00
 1.20000E+00    0.00000E+00
 1.30000E+00    0.00000E+00
 1.40000E+00    0.00000E+00
 1.50000E+00    0.00000E+00
 1.60000E+00    0.00000E+00
 1.70000E+00    0.00000E+00
 1.80000E+00    0.00000E+00
 1.90000E+00    0.00000E+00
 2.00000E+00    0.00000E+00
 2.25000E+00    0.00000E+00
 2.50000E+00    0.00000E+00
 2.75000E+00    0.00000E+00
 3.00000E+00    0.00000E+00
 3.50000E+00    0.00000E+00
 4.00000E+00    0.00000E+00
 4.50000E+00    0.00000E+00
 5.00000E+00    0.00000E+00
 5.50000E+00    0.00000E+00
 6.00000E+00    0.00000E+00
 6.50000E+00    0.00000E+00
 7.00000E+00    5.87751E-20
 7.50000E+00    6.32975E-17
 8.00000E+00    5.33008E-15
 8.50000E+00    1.10911E-13
 9.00000E+00    5.90490E-11
 9.50000E+00    3.69805E-09
 1.00000E+01    6.80473E-08
 1.05000E+01    5.95979E-07
 1.10000E+01    3.22099E-06
 1.15000E+01    1.36103E-05
 1.20000E+01    5.54616E-05
 1.25000E+01    2.29792E-04
 1.30000E+01    8.79563E-04
 1.35000E+01    2.88872E-03
 1.40000E+01    7.98486E-03
 1.45000E+01    1.85829E-02
 1.50000E+01    3.78005E-02
 1.55000E+01    6.89748E-02
 1.60000E+01    1.11581E-01
 1.65000E+01    1.70062E-01
 1.70000E+01    2.40631E-01
 1.75000E+01    3.24374E-01
 1.80000E+01    4.19045E-01
 1.85000E+01    5.24765E-01
 1.90000E+01    6.40163E-01
 1.95000E+01    7.60889E-01
 2.00000E+01    8.89103E-01
