# n + Ag109 : (n,xt)    
# jendl4.0   N.Iwamoto,K.Shibata               EVAL-Dec09
# 
# # energies =    91
#   E(MeV)        xs(mb) 
 8.88494E-02    0.00000E+00
 9.00000E-02    0.00000E+00
 1.00000E-01    0.00000E+00
 1.05000E-01    0.00000E+00
 1.10000E-01    0.00000E+00
 1.20000E-01    0.00000E+00
 1.30000E-01    0.00000E+00
 1.33969E-01    0.00000E+00
 1.40000E-01    0.00000E+00
 1.50000E-01    0.00000E+00
 1.60000E-01    0.00000E+00
 1.70000E-01    0.00000E+00
 1.80000E-01    0.00000E+00
 1.90000E-01    0.00000E+00
 2.00000E-01    0.00000E+00
 2.25000E-01    0.00000E+00
 2.50000E-01    0.00000E+00
 2.75000E-01    0.00000E+00
 3.00000E-01    0.00000E+00
 3.14264E-01    0.00000E+00
 4.00000E-01    0.00000E+00
 4.19056E-01    0.00000E+00
 4.23890E-01    0.00000E+00
 5.00000E-01    0.00000E+00
 6.00000E-01    0.00000E+00
 7.00000E-01    0.00000E+00
 7.08411E-01    0.00000E+00
 7.12539E-01    0.00000E+00
 7.13548E-01    0.00000E+00
 7.31059E-01    0.00000E+00
 7.42100E-01    0.00000E+00
 7.80664E-01    0.00000E+00
 7.96308E-01    0.00000E+00
 8.00000E-01    0.00000E+00
 8.70751E-01    0.00000E+00
 8.77523E-01    0.00000E+00
 8.78058E-01    0.00000E+00
 8.98243E-01    0.00000E+00
 9.00000E-01    0.00000E+00
 9.19438E-01    0.00000E+00
 9.20548E-01    0.00000E+00
 9.39421E-01    0.00000E+00
 1.00000E+00    0.00000E+00
 1.10000E+00    0.00000E+00
 1.20000E+00    0.00000E+00
 1.30000E+00    0.00000E+00
 1.40000E+00    0.00000E+00
 1.50000E+00    0.00000E+00
 1.60000E+00    0.00000E+00
 1.70000E+00    0.00000E+00
 1.80000E+00    0.00000E+00
 1.90000E+00    0.00000E+00
 2.00000E+00    0.00000E+00
 2.25000E+00    0.00000E+00
 2.50000E+00    0.00000E+00
 2.75000E+00    0.00000E+00
 3.00000E+00    0.00000E+00
 3.50000E+00    0.00000E+00
 4.00000E+00    0.00000E+00
 4.50000E+00    0.00000E+00
 5.00000E+00    0.00000E+00
 5.50000E+00    0.00000E+00
 6.00000E+00    0.00000E+00
 6.50000E+00    0.00000E+00
 7.00000E+00    0.00000E+00
 7.50000E+00    4.41568E-18
 8.00000E+00    3.36097E-15
 8.50000E+00    7.20330E-15
 9.00000E+00    4.82630E-13
 9.50000E+00    1.60060E-10
 1.00000E+01    7.70320E-09
 1.05000E+01    1.16240E-07
 1.10000E+01    8.59680E-07
 1.15000E+01    4.15970E-06
 1.20000E+01    1.78379E-05
 1.25000E+01    8.17634E-05
 1.30000E+01    3.63792E-04
 1.35000E+01    1.38562E-03
 1.40000E+01    4.34948E-03
 1.45000E+01    1.13324E-02
 1.50000E+01    2.48141E-02
 1.55000E+01    4.81764E-02
 1.60000E+01    8.17282E-02
 1.65000E+01    1.31118E-01
 1.70000E+01    1.88720E-01
 1.75000E+01    2.62461E-01
 1.80000E+01    3.45105E-01
 1.85000E+01    4.38573E-01
 1.90000E+01    5.41715E-01
 1.95000E+01    6.52916E-01
 2.00000E+01    7.66948E-01
