# n + Ag109 : (n,xa)    
# jendl4.0   N.Iwamoto,K.Shibata               EVAL-Dec09
# 
# # energies =    91
#   E(MeV)        xs(mb) 
 8.88494E-02    1.28723E-11
 9.00000E-02    1.28950E-11
 1.00000E-01    1.31550E-11
 1.05000E-01    1.33528E-11
 1.10000E-01    1.35506E-11
 1.20000E-01    1.40285E-11
 1.30000E-01    1.45740E-11
 1.33969E-01    1.48443E-11
 1.40000E-01    1.52550E-11
 1.50000E-01    1.60340E-11
 1.60000E-01    2.08410E-11
 1.70000E-01    2.16980E-11
 1.80000E-01    2.26770E-11
 1.90000E-01    2.37840E-11
 2.00000E-01    2.50260E-11
 2.25000E-01    2.88270E-11
 2.50000E-01    3.36480E-11
 2.75000E-01    4.87690E-11
 3.00000E-01    5.60450E-11
 3.14264E-01    6.11470E-11
 4.00000E-01    1.03151E-10
 4.19056E-01    1.12440E-10
 4.23890E-01    1.14320E-10
 5.00000E-01    1.93980E-10
 6.00000E-01    3.94989E-10
 7.00000E-01    8.34334E-10
 7.08411E-01    8.67370E-10
 7.12539E-01    8.75261E-10
 7.13548E-01    8.77190E-10
 7.31059E-01    9.07880E-10
 7.42100E-01    9.24080E-10
 7.80664E-01    1.30490E-09
 7.96308E-01    1.33969E-09
 8.00000E-01    1.34790E-09
 8.70751E-01    2.20530E-09
 8.77523E-01    2.23570E-09
 8.78058E-01    2.23810E-09
 8.98243E-01    2.32871E-09
 9.00000E-01    2.33660E-09
 9.19438E-01    2.44548E-09
 9.20548E-01    2.45170E-09
 9.39421E-01    2.57780E-09
 1.00000E+00    4.10270E-09
 1.10000E+00    7.45090E-09
 1.20000E+00    1.34370E-08
 1.30000E+00    2.38780E-08
 1.40000E+00    4.18550E-08
 1.50000E+00    7.23250E-08
 1.60000E+00    1.21509E-07
 1.70000E+00    2.01134E-07
 1.80000E+00    3.27986E-07
 1.90000E+00    5.26310E-07
 2.00000E+00    1.47543E-06
 2.25000E+00    3.13317E-06
 2.50000E+00    8.98848E-06
 2.75000E+00    1.74314E-05
 3.00000E+00    3.97757E-05
 3.50000E+00    1.55212E-04
 4.00000E+00    4.93192E-04
 4.50000E+00    1.32329E-03
 5.00000E+00    3.08461E-03
 5.50000E+00    5.85717E-03
 6.00000E+00    1.12547E-02
 6.50000E+00    2.00381E-02
 7.00000E+00    3.37371E-02
 7.50000E+00    5.49894E-02
 8.00000E+00    8.74941E-02
 8.50000E+00    1.36761E-01
 9.00000E+00    2.09681E-01
 9.50000E+00    3.13553E-01
 1.00000E+01    4.55883E-01
 1.05000E+01    6.42962E-01
 1.10000E+01    8.78798E-01
 1.15000E+01    1.16496E+00
 1.20000E+01    1.49997E+00
 1.25000E+01    1.88000E+00
 1.30000E+01    2.29940E+00
 1.35000E+01    2.75133E+00
 1.40000E+01    3.22439E+00
 1.45000E+01    3.71926E+00
 1.50000E+01    4.22533E+00
 1.55000E+01    4.73488E+00
 1.60000E+01    5.24279E+00
 1.65000E+01    5.73755E+00
 1.70000E+01    6.22404E+00
 1.75000E+01    6.69785E+00
 1.80000E+01    7.15611E+00
 1.85000E+01    7.59699E+00
 1.90000E+01    8.03100E+00
 1.95000E+01    8.44920E+00
 2.00000E+01    8.86104E+00
