# n + Ag109 : (n,xp)    
# jendl4.0   N.Iwamoto,K.Shibata               EVAL-Dec09
# 
# # energies =    91
#   E(MeV)        xs(mb) 
 8.88494E-02    0.00000E+00
 9.00000E-02    0.00000E+00
 1.00000E-01    0.00000E+00
 1.05000E-01    0.00000E+00
 1.10000E-01    0.00000E+00
 1.20000E-01    0.00000E+00
 1.30000E-01    0.00000E+00
 1.33969E-01    0.00000E+00
 1.40000E-01    0.00000E+00
 1.50000E-01    0.00000E+00
 1.60000E-01    0.00000E+00
 1.70000E-01    0.00000E+00
 1.80000E-01    0.00000E+00
 1.90000E-01    0.00000E+00
 2.00000E-01    0.00000E+00
 2.25000E-01    0.00000E+00
 2.50000E-01    0.00000E+00
 2.75000E-01    0.00000E+00
 3.00000E-01    0.00000E+00
 3.14264E-01    0.00000E+00
 4.00000E-01    4.77908E-11
 4.19056E-01    6.22056E-11
 4.23890E-01    6.58622E-11
 5.00000E-01    1.48303E-10
 6.00000E-01    2.84820E-10
 7.00000E-01    6.47661E-10
 7.08411E-01    6.85911E-10
 7.12539E-01    7.06139E-10
 7.13548E-01    7.11368E-10
 7.31059E-01    8.06615E-10
 7.42100E-01    8.69538E-10
 7.80664E-01    1.10409E-09
 7.96308E-01    1.20397E-09
 8.00000E-01    1.22754E-09
 8.70751E-01    1.67925E-09
 8.77523E-01    1.72248E-09
 8.78058E-01    1.72590E-09
 8.98243E-01    1.85477E-09
 9.00000E-01    1.86598E-09
 9.19438E-01    1.99009E-09
 9.20548E-01    1.99717E-09
 9.39421E-01    2.11767E-09
 1.00000E+00    2.50443E-09
 1.10000E+00    3.14287E-09
 1.20000E+00    3.78131E-09
 1.30000E+00    4.41976E-09
 1.40000E+00    5.05820E-09
 1.50000E+00    9.48440E-09
 1.60000E+00    2.91230E-08
 1.70000E+00    1.02130E-07
 1.80000E+00    3.48280E-07
 1.90000E+00    1.07152E-06
 2.00000E+00    2.96537E-06
 2.25000E+00    2.61114E-05
 2.50000E+00    1.51151E-04
 2.75000E+00    6.28429E-04
 3.00000E+00    2.10471E-03
 3.50000E+00    1.31849E-02
 4.00000E+00    4.46549E-02
 4.50000E+00    1.14827E-01
 5.00000E+00    2.28401E-01
 5.50000E+00    3.73306E-01
 6.00000E+00    5.23454E-01
 6.50000E+00    6.54576E-01
 7.00000E+00    7.64947E-01
 7.50000E+00    8.84008E-01
 8.00000E+00    1.05579E+00
 8.50000E+00    1.32528E+00
 9.00000E+00    1.73264E+00
 9.50000E+00    2.31375E+00
 1.00000E+01    3.08356E+00
 1.05000E+01    4.05745E+00
 1.10000E+01    5.24856E+00
 1.15000E+01    6.66965E+00
 1.20000E+01    8.32804E+00
 1.25000E+01    1.02275E+01
 1.30000E+01    1.23695E+01
 1.35000E+01    1.47439E+01
 1.40000E+01    1.73496E+01
 1.45000E+01    2.01460E+01
 1.50000E+01    2.31504E+01
 1.55000E+01    2.62979E+01
 1.60000E+01    2.96286E+01
 1.65000E+01    3.30412E+01
 1.70000E+01    3.66334E+01
 1.75000E+01    4.02712E+01
 1.80000E+01    4.40744E+01
 1.85000E+01    4.79142E+01
 1.90000E+01    5.19004E+01
 1.95000E+01    5.59150E+01
 2.00000E+01    6.00778E+01
