# n + U 234 : (n,xn)    
# jendl4.0   O.Iwamoto, T.Nakagawa, et al.     EVAL-JAN10
# 
# # energies =    95
#   E(MeV)        xs(mb) 
 4.36855E-02    0.00000E+00
 5.00000E-02    6.39169E+01
 7.00000E-02    2.79629E+02
 1.00000E-01    5.08597E+02
 1.10950E-01    5.61256E+02
 1.20000E-01    6.04790E+02
 1.40000E-01    6.89643E+02
 1.43969E-01    7.06041E+02
 1.70000E-01    8.04810E+02
 2.00000E-01    9.22663E+02
 2.50000E-01    1.03078E+03
 2.97347E-01    1.12795E+03
 3.00000E-01    1.13363E+03
 4.00000E-01    1.18114E+03
 4.99182E-01    1.25772E+03
 5.00000E-01    1.25850E+03
 6.00000E-01    1.25114E+03
 7.00000E-01    1.25992E+03
 7.44394E-01    1.24982E+03
 7.89679E-01    1.23348E+03
 8.00000E-01    1.25190E+03
 8.13370E-01    1.26135E+03
 8.52960E-01    1.30227E+03
 8.55371E-01    1.30586E+03
 9.00000E-01    1.37683E+03
 9.30734E-01    1.41320E+03
 9.51935E-01    1.44825E+03
 9.66749E-01    1.46835E+03
 9.72774E-01    1.47598E+03
 9.93714E-01    1.50715E+03
 1.00000E+00    1.52092E+03
 1.02811E+00    1.56045E+03
 1.02821E+00    1.56060E+03
 1.02824E+00    1.56065E+03
 1.04903E+00    1.59199E+03
 1.07391E+00    1.62897E+03
 1.08998E+00    1.65083E+03
 1.09560E+00    1.66069E+03
 1.10000E+00    1.66721E+03
 1.10062E+00    1.66810E+03
 1.13012E+00    1.70662E+03
 1.13154E+00    1.70823E+03
 1.13246E+00    1.71026E+03
 1.15496E+00    1.74003E+03
 1.17022E+00    1.75861E+03
 1.17715E+00    1.76745E+03
 1.17926E+00    1.76987E+03
 1.19988E+00    1.79708E+03
 1.20000E+00    1.79722E+03
 1.30000E+00    1.88451E+03
 1.40000E+00    1.92770E+03
 1.50000E+00    1.96400E+03
 1.60000E+00    1.99180E+03
 1.70000E+00    2.01398E+03
 1.80000E+00    2.03228E+03
 1.90000E+00    2.04549E+03
 2.00000E+00    2.05719E+03
 2.30000E+00    2.07134E+03
 2.50000E+00    2.06959E+03
 2.70000E+00    2.07885E+03
 3.00000E+00    2.07786E+03
 3.50000E+00    2.06563E+03
 4.00000E+00    2.06319E+03
 4.50000E+00    2.08364E+03
 5.00000E+00    2.11901E+03
 5.50000E+00    2.10551E+03
 6.00000E+00    1.98134E+03
 6.50000E+00    1.70033E+03
 7.00000E+00    1.41926E+03
 7.50000E+00    1.28432E+03
 8.00000E+00    1.35643E+03
 8.50000E+00    1.47067E+03
 9.00000E+00    1.57181E+03
 9.50000E+00    1.63072E+03
 1.00000E+01    1.66332E+03
 1.05000E+01    1.66613E+03
 1.10000E+01    1.70105E+03
 1.15000E+01    1.73278E+03
 1.20000E+01    1.77241E+03
 1.25000E+01    1.82755E+03
 1.30000E+01    1.84819E+03
 1.35000E+01    1.80169E+03
 1.40000E+01    1.70009E+03
 1.45000E+01    1.57246E+03
 1.50000E+01    1.44969E+03
 1.55000E+01    1.34695E+03
 1.60000E+01    1.28899E+03
 1.65000E+01    1.26973E+03
 1.70000E+01    1.27245E+03
 1.75000E+01    1.31426E+03
 1.80000E+01    1.38301E+03
 1.85000E+01    1.47770E+03
 1.90000E+01    1.58512E+03
 1.95000E+01    1.68514E+03
 2.00000E+01    1.75858E+03
