# n + Xe128 : (n,xa)    
# jendl.ad   kunieda                           EVAL-Mar14
# 
# # energies =    85
#   E(MeV)        xs(mb) 
 1.50000E-01    0.00000E+00
 2.00000E-01    0.00000E+00
 3.00000E-01    0.00000E+00
 4.00000E-01    0.00000E+00
 4.46403E-01    0.00000E+00
 5.00000E-01    0.00000E+00
 6.00000E-01    0.00000E+00
 7.00000E-01    0.00000E+00
 8.00000E-01    0.00000E+00
 9.00000E-01    0.00000E+00
 9.77120E-01    0.00000E+00
 1.00000E+00    0.00000E+00
 1.04130E+00    0.00000E+00
 1.20000E+00    0.00000E+00
 1.40000E+00    0.00000E+00
 1.44083E+00    0.00000E+00
 1.59545E+00    0.00000E+00
 1.60000E+00    0.00000E+00
 1.61605E+00    0.00000E+00
 1.61606E+00    0.00000E+00
 1.75074E+00    4.01340E-10
 1.80000E+00    2.79099E-09
 1.89212E+00    1.51303E-08
 2.00000E+00    5.89519E-08
 2.01230E+00    6.61993E-08
 2.01542E+00    6.81257E-08
 2.14383E+00    1.77713E-07
 2.20000E+00    2.53116E-07
 2.24661E+00    3.34832E-07
 2.27066E+00    3.84700E-07
 2.29077E+00    4.31136E-07
 2.29889E+00    4.47772E-07
 2.38042E+00    6.95994E-07
 2.38043E+00    6.96029E-07
 2.40000E+00    7.63719E-07
 2.44017E+00    9.38510E-07
 2.44986E+00    9.83257E-07
 2.46319E+00    1.04135E-06
 2.50209E+00    1.25423E-06
 2.52049E+00    1.36033E-06
 2.53051E+00    1.42552E-06
 2.53235E+00    1.43424E-06
 2.54125E+00    1.49067E-06
 2.57078E+00    1.70301E-06
 2.58501E+00    1.80600E-06
 2.60354E+00    1.96040E-06
 2.61201E+00    2.03512E-06
 2.61907E+00    2.08928E-06
 2.65376E+00    2.41086E-06
 2.70000E+00    2.91918E-06
 3.00000E+00    9.47916E-06
 3.50000E+00    5.97158E-05
 4.00000E+00    3.00225E-04
 4.50000E+00    1.15977E-03
 5.00000E+00    3.59529E-03
 5.50000E+00    8.85632E-03
 6.00000E+00    1.76898E-02
 6.50000E+00    2.87311E-02
 7.00000E+00    3.93391E-02
 7.50000E+00    5.11830E-02
 8.00000E+00    6.52070E-02
 8.50000E+00    8.07147E-02
 9.00000E+00    9.97239E-02
 9.50000E+00    1.28474E-01
 1.00000E+01    1.62544E-01
 1.05000E+01    2.13239E-01
 1.10000E+01    2.83977E-01
 1.15000E+01    3.86007E-01
 1.20000E+01    5.14681E-01
 1.25000E+01    6.84816E-01
 1.30000E+01    8.96218E-01
 1.35000E+01    1.13776E+00
 1.40000E+01    1.42290E+00
 1.45000E+01    1.74459E+00
 1.50000E+01    2.09716E+00
 1.55000E+01    2.47730E+00
 1.60000E+01    2.87794E+00
 1.65000E+01    3.29538E+00
 1.70000E+01    3.72803E+00
 1.75000E+01    4.17626E+00
 1.80000E+01    4.62510E+00
 1.85000E+01    5.09061E+00
 1.90000E+01    5.53979E+00
 1.95000E+01    6.00886E+00
 2.00000E+01    6.45221E+00
