# n + Cd111 : (n,xp)    
# jendl.ad   kunieda                           EVAL-Mar14
# 
# # energies =    94
#   E(MeV)        xs(mb) 
 1.50000E-01    0.00000E+00
 2.00000E-01    0.00000E+00
 2.47622E-01    0.00000E+00
 3.00000E-01    1.13129E-11
 3.45247E-01    2.81130E-11
 3.99818E-01    5.20206E-11
 4.00000E-01    5.21004E-11
 4.20510E-01    6.10862E-11
 5.00000E-01    9.59125E-11
 6.00000E-01    1.39723E-10
 6.25820E-01    1.51034E-10
 6.86669E-01    1.77687E-10
 7.00000E-01    1.83528E-10
 7.06366E-01    1.86317E-10
 7.11341E-01    1.88496E-10
 7.42694E-01    2.02232E-10
 7.59657E-01    2.09664E-10
 7.61766E-01    2.10588E-10
 8.00000E-01    2.27338E-10
 8.38820E-01    2.44346E-10
 8.61706E-01    2.54372E-10
 8.61707E-01    2.54372E-10
 8.63382E-01    2.55106E-10
 8.72665E-01    2.59173E-10
 8.74482E-01    2.59969E-10
 9.00000E-01    2.71149E-10
 9.76703E-01    3.04753E-10
 9.95502E-01    3.12989E-10
 1.00000E+00    3.14959E-10
 1.02601E+00    3.26354E-10
 1.02928E+00    3.27787E-10
 1.05628E+00    3.39616E-10
 1.06711E+00    3.44360E-10
 1.08806E+00    3.53539E-10
 1.12571E+00    3.70033E-10
 1.12858E+00    3.71291E-10
 1.14028E+00    3.76417E-10
 1.16147E+00    3.85700E-10
 1.19651E+00    4.01051E-10
 1.20000E+00    4.02580E-10
 1.20078E+00    4.02922E-10
 1.26802E+00    4.32380E-10
 1.28627E+00    5.49750E-10
 1.30061E+00    6.72270E-10
 1.31039E+00    7.75350E-10
 1.33363E+00    1.10280E-09
 1.33800E+00    1.19540E-09
 1.33869E+00    1.20990E-09
 1.34210E+00    1.28670E-09
 1.35190E+00    1.53140E-09
 1.35286E+00    1.55750E-09
 1.35353E+00    1.57490E-09
 1.40000E+00    3.47840E-09
 1.60000E+00    6.48200E-08
 1.80000E+00    6.62020E-07
 2.00000E+00    4.36618E-06
 2.20000E+00    2.09072E-05
 2.40000E+00    7.85653E-05
 2.70000E+00    4.06009E-04
 3.00000E+00    1.51494E-03
 3.50000E+00    8.39212E-03
 4.00000E+00    2.97942E-02
 4.50000E+00    7.73877E-02
 5.00000E+00    1.45503E-01
 5.50000E+00    2.63686E-01
 6.00000E+00    3.91358E-01
 6.50000E+00    5.36595E-01
 7.00000E+00    6.96946E-01
 7.50000E+00    8.78707E-01
 8.00000E+00    1.10939E+00
 8.50000E+00    1.41333E+00
 9.00000E+00    1.88079E+00
 9.50000E+00    2.51951E+00
 1.00000E+01    3.38414E+00
 1.05000E+01    4.49902E+00
 1.10000E+01    5.86597E+00
 1.15000E+01    7.51306E+00
 1.20000E+01    9.41121E+00
 1.25000E+01    1.15981E+01
 1.30000E+01    1.40236E+01
 1.35000E+01    1.67121E+01
 1.40000E+01    1.96532E+01
 1.45000E+01    2.28022E+01
 1.50000E+01    2.61760E+01
 1.55000E+01    2.97539E+01
 1.60000E+01    3.34843E+01
 1.65000E+01    3.73447E+01
 1.70000E+01    4.13492E+01
 1.75000E+01    4.54712E+01
 1.80000E+01    4.96802E+01
 1.85000E+01    5.39852E+01
 1.90000E+01    5.83802E+01
 1.95000E+01    6.28140E+01
 2.00000E+01    6.74309E+01
