# n + Rb  0 : (n,xn)
# jendl4.0   K.Shibata, A.Ichihara, S.Kunieda  EVAL-AUG09
#
# # energies =    71
#   E(MeV)          xs(mb) 
 1.52957E-01    0.00000E+00
 2.00000E-01    1.31205E+02
 2.84324E-01    2.46284E+02
 3.00000E-01    2.74910E+02
 4.00000E-01    3.78972E+02
 5.00000E-01    5.25550E+02
 5.20114E-01    5.43268E+02
 6.00000E-01    7.13668E+02
 7.00000E-01    8.06490E+02
 7.40515E-01    8.21258E+02
 8.00000E-01    8.76874E+02
 8.79303E-01    9.16195E+02
 8.96343E-01    9.46459E+02
 9.00000E-01    9.54030E+02
 9.30625E-01    9.72247E+02
 9.30635E-01    9.72255E+02
 9.62246E-01    1.02410E+03
 1.00000E+00    1.11342E+03
 1.18896E+00    1.14845E+03
 1.18949E+00    1.14866E+03
 1.30873E+00    1.22337E+03
 1.31133E+00    1.22523E+03
 1.40065E+00    1.30863E+03
 1.46223E+00    1.40074E+03
 1.46642E+00    1.40819E+03
 1.50000E+00    1.47813E+03
 1.51406E+00    1.47780E+03
 1.65084E+00    1.48774E+03
 1.68845E+00    1.49874E+03
 1.76856E+00    1.52539E+03
 1.80816E+00    1.54738E+03
 1.81357E+00    1.55090E+03
 1.82361E+00    1.55773E+03
 1.87463E+00    1.59808E+03
 1.91346E+00    1.63116E+03
 1.95262E+00    1.67001E+03
 1.97319E+00    1.69269E+03
 2.00000E+00    1.72509E+03
 2.02366E+00    1.72681E+03
 2.05220E+00    1.73074E+03
 2.06373E+00    1.73326E+03
 2.07739E+00    1.73649E+03
 2.11240E+00    1.74698E+03
 2.12252E+00    1.75045E+03
 2.50000E+00    1.97084E+03
 3.00000E+00    2.04751E+03
 3.50000E+00    2.04805E+03
 4.00000E+00    2.00116E+03
 4.50000E+00    1.93758E+03
 5.00000E+00    1.87827E+03
 5.50000E+00    1.83408E+03
 6.00000E+00    1.80511E+03
 6.50000E+00    1.78909E+03
 7.00000E+00    1.78106E+03
 7.50000E+00    1.77698E+03
 8.00000E+00    1.77404E+03
 8.50000E+00    1.77016E+03
 9.00000E+00    1.76529E+03
 9.50000E+00    1.75942E+03
 1.00000E+01    1.75274E+03
 1.10000E+01    1.79967E+03
 1.20000E+01    2.15768E+03
 1.30000E+01    2.49662E+03
 1.40000E+01    2.70431E+03
 1.45000E+01    2.76406E+03
 1.50000E+01    2.80878E+03
 1.60000E+01    2.84906E+03
 1.70000E+01    2.85876E+03
 1.80000E+01    2.85645E+03
 1.90000E+01    2.85341E+03
 2.00000E+01    2.84704E+03
