# n + Nd142 : (n,xp)    
# jendl.ad   N.Iwamoto                         EVAL-Apr14
# 
# # energies =   100
#   E(MeV)        xs(mb) 
 1.05000E-01    0.00000E+00
 1.10000E-01    0.00000E+00
 1.20000E-01    0.00000E+00
 1.30000E-01    0.00000E+00
 1.40000E-01    0.00000E+00
 1.50000E-01    0.00000E+00
 1.60000E-01    0.00000E+00
 1.70000E-01    0.00000E+00
 1.80000E-01    0.00000E+00
 1.90000E-01    0.00000E+00
 2.00000E-01    0.00000E+00
 2.25000E-01    0.00000E+00
 2.50000E-01    0.00000E+00
 2.75000E-01    0.00000E+00
 3.00000E-01    0.00000E+00
 4.00000E-01    0.00000E+00
 5.00000E-01    0.00000E+00
 6.00000E-01    0.00000E+00
 7.00000E-01    0.00000E+00
 8.00000E-01    0.00000E+00
 9.00000E-01    0.00000E+00
 1.00000E+00    0.00000E+00
 1.10000E+00    0.00000E+00
 1.20000E+00    0.00000E+00
 1.30000E+00    0.00000E+00
 1.40000E+00    8.11349E-15
 1.50000E+00    8.88860E-14
 1.58698E+00    1.59142E-13
 1.60000E+00    1.69658E-13
 1.70000E+00    2.50431E-13
 1.80000E+00    3.31203E-13
 1.90000E+00    4.11976E-13
 2.00000E+00    4.92748E-13
 2.09875E+00    5.72511E-13
 2.11572E+00    5.86218E-13
 2.22501E+00    6.74494E-13
 2.23325E+00    6.81150E-13
 2.25000E+00    6.94679E-13
 2.25995E+00    7.02716E-13
 2.35663E+00    7.80807E-13
 2.40129E+00    8.16880E-13
 2.45449E+00    4.87670E-12
 2.50000E+00    1.53420E-11
 2.53176E+00    3.19130E-11
 2.53288E+00    3.26520E-11
 2.54698E+00    4.44730E-11
 2.56539E+00    6.56990E-11
 2.60145E+00    1.35170E-10
 2.60393E+00    1.40320E-10
 2.67488E+00    5.30250E-10
 2.75000E+00    2.03210E-09
 2.75672E+00    2.27920E-09
 2.79573E+00    4.30760E-09
 2.86609E+00    1.30170E-08
 2.89342E+00    1.91680E-08
 2.90683E+00    2.35040E-08
 2.97902E+00    6.28170E-08
 2.97903E+00    6.28263E-08
 2.99705E+00    7.95400E-08
 3.00000E+00    8.20090E-08
 3.00430E+00    8.91960E-08
 3.03136E+00    1.24770E-07
 3.06684E+00    1.90830E-07
 3.10296E+00    3.00150E-07
 3.10778E+00    3.15680E-07
 3.15029E+00    5.02180E-07
 3.50000E+00    1.47587E-05
 4.00000E+00    4.91260E-04
 4.50000E+00    5.92579E-03
 5.00000E+00    3.55223E-02
 5.50000E+00    1.30488E-01
 6.00000E+00    3.39185E-01
 6.50000E+00    6.86187E-01
 7.00000E+00    1.15120E+00
 7.50000E+00    1.67923E+00
 8.00000E+00    2.21482E+00
 8.50000E+00    2.72634E+00
 9.00000E+00    3.21091E+00
 9.50000E+00    3.68944E+00
 1.00000E+01    4.20253E+00
 1.05000E+01    4.81590E+00
 1.10000E+01    5.59612E+00
 1.15000E+01    6.60645E+00
 1.20000E+01    7.80639E+00
 1.25000E+01    9.23760E+00
 1.30000E+01    1.08673E+01
 1.35000E+01    1.27500E+01
 1.40000E+01    1.48640E+01
 1.45000E+01    1.72584E+01
 1.50000E+01    1.99047E+01
 1.55000E+01    2.28745E+01
 1.60000E+01    2.60734E+01
 1.65000E+01    2.94305E+01
 1.70000E+01    3.31037E+01
 1.75000E+01    3.71490E+01
 1.80000E+01    4.10974E+01
 1.85000E+01    4.52917E+01
 1.90000E+01    5.01124E+01
 1.95000E+01    5.44864E+01
 2.00000E+01    5.95536E+01
