# n + Nd142 : (n,xa)    
# jendl.ad   N.Iwamoto                         EVAL-Apr14
# 
# # energies =   100
#   E(MeV)        xs(mb) 
 1.05000E-01    1.74156E-05
 1.10000E-01    1.73466E-05
 1.20000E-01    1.72192E-05
 1.30000E-01    1.71336E-05
 1.40000E-01    1.72614E-05
 1.50000E-01    1.73892E-05
 1.60000E-01    1.75192E-05
 1.70000E-01    1.76629E-05
 1.80000E-01    1.78310E-05
 1.90000E-01    1.80219E-05
 2.00000E-01    1.82128E-05
 2.25000E-01    1.93013E-05
 2.50000E-01    2.03897E-05
 2.75000E-01    2.15056E-05
 3.00000E-01    2.26443E-05
 4.00000E-01    2.98994E-05
 5.00000E-01    4.06329E-05
 6.00000E-01    5.60665E-05
 7.00000E-01    7.78902E-05
 8.00000E-01    1.08596E-04
 9.00000E-01    1.51147E-04
 1.00000E+00    2.09888E-04
 1.10000E+00    2.91445E-04
 1.20000E+00    4.00144E-04
 1.30000E+00    5.52160E-04
 1.40000E+00    7.54515E-04
 1.50000E+00    1.02277E-03
 1.58698E+00    1.34253E-03
 1.60000E+00    1.24423E-03
 1.70000E+00    1.34865E-03
 1.80000E+00    1.61239E-03
 1.90000E+00    1.97230E-03
 2.00000E+00    2.37563E-03
 2.09875E+00    2.94695E-03
 2.11572E+00    2.84582E-03
 2.22501E+00    2.96996E-03
 2.23325E+00    3.00184E-03
 2.25000E+00    3.03390E-03
 2.25995E+00    3.07105E-03
 2.35663E+00    3.23528E-03
 2.40129E+00    3.36880E-03
 2.45449E+00    3.43014E-03
 2.50000E+00    3.50475E-03
 2.53176E+00    3.63627E-03
 2.53288E+00    3.63410E-03
 2.54698E+00    3.60677E-03
 2.56539E+00    3.58533E-03
 2.60145E+00    3.59877E-03
 2.60393E+00    3.57447E-03
 2.67488E+00    3.62708E-03
 2.75000E+00    3.88515E-03
 2.75672E+00    3.90912E-03
 2.79573E+00    4.05345E-03
 2.86609E+00    4.34619E-03
 2.89342E+00    4.43159E-03
 2.90683E+00    4.47349E-03
 2.97902E+00    4.85956E-03
 2.97903E+00    4.85961E-03
 2.99705E+00    4.95598E-03
 3.00000E+00    4.97202E-03
 3.00430E+00    4.99579E-03
 3.03136E+00    5.14449E-03
 3.06684E+00    5.33837E-03
 3.10296E+00    5.52722E-03
 3.10778E+00    5.55129E-03
 3.15029E+00    5.82193E-03
 3.50000E+00    8.86452E-03
 4.00000E+00    1.62282E-02
 4.50000E+00    2.80352E-02
 5.00000E+00    4.45858E-02
 5.50000E+00    6.59298E-02
 6.00000E+00    9.21784E-02
 6.50000E+00    1.23465E-01
 7.00000E+00    1.60158E-01
 7.50000E+00    2.03317E-01
 8.00000E+00    2.56020E-01
 8.50000E+00    3.23502E-01
 9.00000E+00    4.14906E-01
 9.50000E+00    5.40683E-01
 1.00000E+01    7.14882E-01
 1.05000E+01    9.46079E-01
 1.10000E+01    1.24214E+00
 1.15000E+01    1.61436E+00
 1.20000E+01    2.06769E+00
 1.25000E+01    2.60698E+00
 1.30000E+01    3.22583E+00
 1.35000E+01    3.92216E+00
 1.40000E+01    4.68577E+00
 1.45000E+01    5.51013E+00
 1.50000E+01    6.38536E+00
 1.55000E+01    7.30475E+00
 1.60000E+01    8.25328E+00
 1.65000E+01    9.22719E+00
 1.70000E+01    1.02248E+01
 1.75000E+01    1.12267E+01
 1.80000E+01    1.22419E+01
 1.85000E+01    1.32537E+01
 1.90000E+01    1.42734E+01
 1.95000E+01    1.52825E+01
 2.00000E+01    1.62945E+01
