# n + Cd114 : (n,xn)    
# jendl4.0   S.Kunieda, A.Ichihara, K.Shibata+ EVAL-FEB22
# 
# # energies =    77
#   E(MeV)        xs(mb) 
 5.63401E-01    0.00000E+00
 6.00000E-01    2.84500E+02
 6.50000E-01    5.59400E+02
 7.00000E-01    7.55100E+02
 7.50000E-01    8.92300E+02
 8.00000E-01    9.90800E+02
 8.50000E-01    1.06200E+03
 9.00000E-01    1.11400E+03
 9.50000E-01    1.15200E+03
 1.00000E+00    1.17900E+03
 1.14458E+00    1.19346E+03
 1.20000E+00    1.25817E+03
 1.22042E+00    1.24275E+03
 1.29511E+00    1.30528E+03
 1.31717E+00    1.33475E+03
 1.37642E+00    1.45209E+03
 1.40000E+00    1.54385E+03
 1.60000E+00    1.74520E+03
 1.74759E+00    1.80276E+03
 1.79980E+00    1.83786E+03
 1.80000E+00    1.83986E+03
 1.85826E+00    1.82083E+03
 1.87617E+00    1.82617E+03
 1.88077E+00    1.82852E+03
 1.94919E+00    1.89542E+03
 1.97543E+00    1.92679E+03
 2.00000E+00    1.97065E+03
 2.00793E+00    1.97269E+03
 2.06617E+00    1.98801E+03
 2.17133E+00    2.06236E+03
 2.20000E+00    2.09296E+03
 2.22408E+00    2.08802E+03
 2.23851E+00    2.08857E+03
 2.31929E+00    2.11784E+03
 2.33762E+00    2.12571E+03
 2.40000E+00    2.17302E+03
 2.40588E+00    2.16962E+03
 2.40844E+00    2.16873E+03
 2.41268E+00    2.16824E+03
 2.42145E+00    2.16811E+03
 2.43386E+00    2.16799E+03
 2.45923E+00    2.16845E+03
 2.47775E+00    2.17033E+03
 2.48255E+00    2.17203E+03
 2.48703E+00    2.17421E+03
 2.49712E+00    2.18131E+03
 2.60000E+00    2.32990E+03
 2.80000E+00    2.34971E+03
 3.00000E+00    2.35269E+03
 3.25000E+00    2.34573E+03
 3.50000E+00    2.33957E+03
 3.75000E+00    2.33570E+03
 4.00000E+00    2.33702E+03
 4.25000E+00    2.34269E+03
 4.50000E+00    2.34979E+03
 4.75000E+00    2.35627E+03
 5.00000E+00    2.36009E+03
 5.50000E+00    2.35448E+03
 6.00000E+00    2.33151E+03
 6.50000E+00    2.29666E+03
 7.00000E+00    2.25783E+03
 7.50000E+00    2.22167E+03
 8.00000E+00    2.19135E+03
 8.50000E+00    2.16802E+03
 9.00000E+00    2.15054E+03
 9.50000E+00    2.17217E+03
 1.00000E+01    2.52978E+03
 1.10000E+01    3.17284E+03
 1.20000E+01    3.48041E+03
 1.30000E+01    3.63203E+03
 1.40000E+01    3.70064E+03
 1.50000E+01    3.72580E+03
 1.60000E+01    3.71945E+03
 1.70000E+01    3.71964E+03
 1.80000E+01    3.79907E+03
 1.90000E+01    3.95137E+03
 2.00000E+01    4.13886E+03
