# n + W 182 : (n,xn)    
# jendl.ad   N.Iwamoto                         EVAL-Apr14
# 
# # energies =   110
#   E(MeV)        xs(mb) 
 1.00330E-01    0.00000E+00
 1.00661E-01    1.36689E-03
 1.10000E-01    1.47074E+02
 1.20000E-01    2.04670E+02
 1.30000E-01    2.57114E+02
 1.40000E-01    3.05952E+02
 1.50000E-01    3.51645E+02
 1.60000E-01    4.04387E+02
 1.70000E-01    4.46001E+02
 1.80000E-01    4.85932E+02
 1.90000E-01    5.24690E+02
 2.00000E-01    5.62888E+02
 2.25000E-01    6.52490E+02
 2.50000E-01    7.39675E+02
 2.75000E-01    8.15713E+02
 3.00000E-01    8.87004E+02
 3.31253E-01    9.73270E+02
 4.00000E-01    1.14858E+03
 5.00000E-01    1.35672E+03
 6.00000E-01    1.52766E+03
 6.84272E-01    1.64994E+03
 7.00000E-01    1.67012E+03
 8.00000E-01    1.77443E+03
 9.00000E-01    1.86236E+03
 1.00000E+00    1.94206E+03
 1.10000E+00    2.00201E+03
 1.14211E+00    2.02167E+03
 1.15074E+00    2.04354E+03
 1.20000E+00    2.08455E+03
 1.22818E+00    2.10288E+03
 1.26439E+00    2.16416E+03
 1.29631E+00    2.22556E+03
 1.30000E+00    2.24146E+03
 1.33851E+00    2.30347E+03
 1.38146E+00    2.36623E+03
 1.40000E+00    2.39397E+03
 1.45082E+00    2.45073E+03
 1.49576E+00    2.49346E+03
 1.50000E+00    2.49878E+03
 1.51856E+00    2.51736E+03
 1.56185E+00    2.55472E+03
 1.60000E+00    2.58617E+03
 1.63028E+00    2.60948E+03
 1.63255E+00    2.61113E+03
 1.66960E+00    2.63598E+03
 1.70000E+00    2.65403E+03
 1.72139E+00    2.66696E+03
 1.76654E+00    2.69096E+03
 1.77522E+00    2.69518E+03
 1.77878E+00    2.69810E+03
 1.77931E+00    2.69845E+03
 1.80000E+00    2.70933E+03
 1.81972E+00    2.71976E+03
 1.82095E+00    2.72039E+03
 1.82345E+00    2.72164E+03
 1.83969E+00    2.73109E+03
 1.84326E+00    2.73295E+03
 1.86632E+00    2.74608E+03
 1.86719E+00    2.74746E+03
 1.88154E+00    2.76016E+03
 1.89832E+00    2.77530E+03
 1.90000E+00    2.77752E+03
 1.92762E+00    2.79734E+03
 1.92924E+00    2.79828E+03
 1.97014E+00    2.82257E+03
 1.97122E+00    2.82377E+03
 1.97166E+00    2.82411E+03
 1.98205E+00    2.83015E+03
 1.98936E+00    2.83382E+03
 1.99282E+00    2.83539E+03
 2.00000E+00    2.84004E+03
 2.00484E+00    2.84254E+03
 2.25000E+00    2.93161E+03
 2.50000E+00    2.97628E+03
 2.75000E+00    3.00581E+03
 3.00000E+00    3.00718E+03
 3.50000E+00    2.98904E+03
 4.00000E+00    2.96199E+03
 4.50000E+00    2.93830E+03
 5.00000E+00    2.91734E+03
 5.50000E+00    2.89093E+03
 6.00000E+00    2.85970E+03
 6.50000E+00    2.82333E+03
 7.00000E+00    2.78681E+03
 7.50000E+00    2.75178E+03
 8.00000E+00    2.72031E+03
 8.50000E+00    2.80046E+03
 9.00000E+00    3.24360E+03
 9.50000E+00    3.73714E+03
 1.00000E+01    4.09379E+03
 1.05000E+01    4.31372E+03
 1.10000E+01    4.43875E+03
 1.15000E+01    4.50429E+03
 1.20000E+01    4.53407E+03
 1.25000E+01    4.54303E+03
 1.30000E+01    4.54045E+03
 1.35000E+01    4.53163E+03
 1.40000E+01    4.51950E+03
 1.45000E+01    4.50559E+03
 1.50000E+01    4.49417E+03
 1.55000E+01    4.47909E+03
 1.60000E+01    4.50116E+03
 1.65000E+01    4.58359E+03
 1.70000E+01    4.71801E+03
 1.75000E+01    4.87989E+03
 1.80000E+01    5.04439E+03
 1.85000E+01    5.19646E+03
 1.90000E+01    5.32775E+03
 1.95000E+01    5.43530E+03
 2.00000E+01    5.52007E+03
