# n + Zn 70 :  n        
# jendl4.0   N.Iwamoto                         EVAL-Dec09
# uncertainties: n
# # energies =    78
#   E(MeV)       xs(mb) 
 1.05000E-01    0.00000E+00
 1.10000E-01    1.48034E-06
 1.20000E-01    1.69652E-06
 1.30000E-01    1.90727E-06
 1.40000E-01    2.05845E-06
 1.50000E-01    2.14287E-06
 1.60000E-01    2.17817E-06
 1.70000E-01    2.18671E-06
 1.80000E-01    2.18204E-06
 1.90000E-01    2.17226E-06
 2.00000E-01    2.16238E-06
 2.25000E-01    1.97656E-05
 2.50000E-01    2.57723E-05
 2.75000E-01    2.79042E-05
 3.00000E-01    2.87369E-05
 4.00000E-01    1.39692E-04
 5.00000E-01    4.42235E-04
 6.00000E-01    1.10623E-03
 7.00000E-01    2.37938E-03
 8.00000E-01    4.60840E-03
 8.97563E-01    8.22675E-03
 9.00000E-01    7.21759E-03
 1.00000E+00    7.07734E-03
 1.08371E+00    9.12054E-03
 1.10000E+00    8.94176E-03
 1.20000E+00    1.15784E-02
 1.30000E+00    1.53799E-02
 1.40000E+00    2.04131E-02
 1.50000E+00    2.69480E-02
 1.57642E+00    3.41848E-02
 1.60000E+00    3.25361E-02
 1.70000E+00    3.95272E-02
 1.78448E+00    4.80330E-02
 1.80000E+00    4.71933E-02
 1.81227E+00    4.72317E-02
 1.90000E+00    5.34382E-02
 1.98594E+00    6.16288E-02
 2.00000E+00    6.09478E-02
 2.17128E+00    7.90667E-02
 2.25000E+00    8.76576E-02
 2.40926E+00    1.10004E-01
 2.50000E+00    1.24021E-01
 2.75000E+00    7.55826E+01
 3.00000E+00    1.88525E+02
 3.50000E+00    5.44332E+02
 4.00000E+00    8.68262E+02
 4.50000E+00    1.08820E+03
 5.00000E+00    1.23264E+03
 5.50000E+00    1.33414E+03
 6.00000E+00    1.40581E+03
 6.50000E+00    1.45299E+03
 7.00000E+00    1.48194E+03
 7.50000E+00    1.49937E+03
 8.00000E+00    1.51012E+03
 8.50000E+00    1.51787E+03
 9.00000E+00    1.52068E+03
 9.50000E+00    1.51597E+03
 1.00000E+01    1.43368E+03
 1.05000E+01    1.23627E+03
 1.10000E+01    1.01217E+03
 1.15000E+01    8.24093E+02
 1.20000E+01    6.83654E+02
 1.25000E+01    5.74517E+02
 1.30000E+01    4.89249E+02
 1.35000E+01    4.19339E+02
 1.40000E+01    3.65870E+02
 1.45000E+01    3.23903E+02
 1.50000E+01    2.91913E+02
 1.55000E+01    2.66141E+02
 1.60000E+01    2.46387E+02
 1.65000E+01    2.29216E+02
 1.70000E+01    2.15235E+02
 1.75000E+01    2.03037E+02
 1.80000E+01    1.91945E+02
 1.85000E+01    1.81731E+02
 1.90000E+01    1.72721E+02
 1.95000E+01    1.64433E+02
 2.00000E+01    1.57296E+02
