# n + Zn 70 : (n,n'02)  
# jendl4.0   N.Iwamoto                         EVAL-Dec09
# uncertainties: n
# # energies =    55
#   E(MeV)       xs(mb) 
 1.08371E+00    0.00000E+00
 1.10000E+00    5.19970E+01
 1.20000E+00    1.19045E+02
 1.30000E+00    1.55804E+02
 1.40000E+00    1.80131E+02
 1.50000E+00    1.96041E+02
 1.57642E+00    2.04608E+02
 1.60000E+00    2.06336E+02
 1.70000E+00    2.11847E+02
 1.78448E+00    2.13875E+02
 1.80000E+00    2.11063E+02
 1.81227E+00    2.10284E+02
 1.90000E+00    2.05342E+02
 1.98594E+00    2.00085E+02
 2.00000E+00    1.97028E+02
 2.17128E+00    1.79552E+02
 2.25000E+00    1.66157E+02
 2.40926E+00    1.46302E+02
 2.50000E+00    1.34360E+02
 2.75000E+00    1.09250E+02
 3.00000E+00    8.78924E+01
 3.50000E+00    6.10768E+01
 4.00000E+00    4.35248E+01
 4.50000E+00    2.99556E+01
 5.00000E+00    1.96047E+01
 5.50000E+00    1.24361E+01
 6.00000E+00    7.77405E+00
 6.50000E+00    4.82439E+00
 7.00000E+00    2.98113E+00
 7.50000E+00    1.83857E+00
 8.00000E+00    1.13436E+00
 8.50000E+00    7.02151E-01
 9.00000E+00    4.35614E-01
 9.50000E+00    2.70538E-01
 1.00000E+01    1.68248E-01
 1.05000E+01    1.04769E-01
 1.10000E+01    6.55281E-02
 1.15000E+01    4.11173E-02
 1.20000E+01    2.60538E-02
 1.25000E+01    1.66019E-02
 1.30000E+01    1.06944E-02
 1.35000E+01    6.93652E-03
 1.40000E+01    4.55109E-03
 1.45000E+01    3.00614E-03
 1.50000E+01    2.00783E-03
 1.55000E+01    1.34879E-03
 1.60000E+01    9.15240E-04
 1.65000E+01    6.23641E-04
 1.70000E+01    4.28554E-04
 1.75000E+01    2.95289E-04
 1.80000E+01    2.04898E-04
 1.85000E+01    1.42425E-04
 1.90000E+01    9.95822E-05
 1.95000E+01    6.97461E-05
 2.00000E+01    4.90997E-05
