# n + Yb172 : (n,xn)    
# jendl.ad   kunieda                           EVAL-Mar14
# 
# # energies =    91
#   E(MeV)        xs(mb) 
 7.92049E-02    0.00000E+00
 8.00000E-02    2.25541E+02
 9.00000E-02    3.46773E+02
 1.00000E-01    4.25989E+02
 1.50000E-01    7.83279E+02
 2.00000E-01    1.14058E+03
 2.61795E-01    1.50106E+03
 3.00000E-01    1.68519E+03
 4.00000E-01    2.05701E+03
 5.00000E-01    2.28869E+03
 5.43145E-01    2.34795E+03
 6.00000E-01    2.39196E+03
 7.00000E-01    2.39278E+03
 8.00000E-01    2.32731E+03
 9.00000E-01    2.22863E+03
 9.17471E-01    2.21007E+03
 1.00000E+00    2.12039E+03
 1.04903E+00    2.06865E+03
 1.12443E+00    2.04931E+03
 1.16172E+00    2.10416E+03
 1.17927E+00    2.16389E+03
 1.20000E+00    2.19004E+03
 1.20550E+00    2.18968E+03
 1.22889E+00    2.20802E+03
 1.27044E+00    2.20602E+03
 1.29409E+00    2.20129E+03
 1.33850E+00    2.19515E+03
 1.36089E+00    2.19545E+03
 1.37811E+00    2.19479E+03
 1.38388E+00    2.19461E+03
 1.40000E+00    2.19483E+03
 1.41325E+00    2.19500E+03
 1.47448E+00    2.21222E+03
 1.48544E+00    2.23033E+03
 1.50488E+00    2.25255E+03
 1.51904E+00    2.26346E+03
 1.54652E+00    2.26610E+03
 1.54965E+00    2.26612E+03
 1.55824E+00    2.26602E+03
 1.55953E+00    2.26836E+03
 1.55990E+00    2.26862E+03
 1.56672E+00    2.27113E+03
 1.60000E+00    2.27186E+03
 1.60926E+00    2.27141E+03
 1.61793E+00    2.27460E+03
 1.64272E+00    2.28356E+03
 1.65018E+00    2.28384E+03
 1.66752E+00    2.28374E+03
 1.67256E+00    2.28370E+03
 1.67589E+00    2.28547E+03
 1.68035E+00    2.28592E+03
 1.80000E+00    2.28646E+03
 2.00000E+00    2.29155E+03
 2.20000E+00    2.28689E+03
 2.40000E+00    2.27629E+03
 2.70000E+00    2.25441E+03
 3.00000E+00    2.23084E+03
 3.50000E+00    2.19895E+03
 4.00000E+00    2.19129E+03
 4.50000E+00    2.21778E+03
 5.00000E+00    2.27714E+03
 5.50000E+00    2.35299E+03
 6.00000E+00    2.41987E+03
 6.50000E+00    2.46032E+03
 7.00000E+00    2.47204E+03
 7.50000E+00    2.46286E+03
 8.00000E+00    2.44295E+03
 8.50000E+00    2.62019E+03
 9.00000E+00    3.29228E+03
 9.50000E+00    3.80797E+03
 1.00000E+01    4.13083E+03
 1.05000E+01    4.29429E+03
 1.10000E+01    4.38156E+03
 1.15000E+01    4.45431E+03
 1.20000E+01    4.49036E+03
 1.25000E+01    4.52013E+03
 1.30000E+01    4.52797E+03
 1.35000E+01    4.52722E+03
 1.40000E+01    4.52042E+03
 1.45000E+01    4.50818E+03
 1.50000E+01    4.50583E+03
 1.55000E+01    4.48882E+03
 1.60000E+01    4.55246E+03
 1.65000E+01    4.73883E+03
 1.70000E+01    4.91979E+03
 1.75000E+01    5.15683E+03
 1.80000E+01    5.37946E+03
 1.85000E+01    5.54510E+03
 1.90000E+01    5.68290E+03
 1.95000E+01    5.79549E+03
 2.00000E+01    5.89006E+03
