# n + Yb172 : (n,xp)    
# jendl.ad   kunieda                           EVAL-Mar14
# 
# # energies =    91
#   E(MeV)        xs(mb) 
 7.92049E-02    0.00000E+00
 8.00000E-02    0.00000E+00
 9.00000E-02    0.00000E+00
 1.00000E-01    0.00000E+00
 1.50000E-01    0.00000E+00
 2.00000E-01    0.00000E+00
 2.61795E-01    0.00000E+00
 3.00000E-01    0.00000E+00
 4.00000E-01    0.00000E+00
 5.00000E-01    0.00000E+00
 5.43145E-01    0.00000E+00
 6.00000E-01    0.00000E+00
 7.00000E-01    0.00000E+00
 8.00000E-01    0.00000E+00
 9.00000E-01    0.00000E+00
 9.17471E-01    0.00000E+00
 1.00000E+00    0.00000E+00
 1.04903E+00    0.00000E+00
 1.12443E+00    3.87420E-18
 1.16172E+00    1.10797E-17
 1.17927E+00    1.47470E-17
 1.20000E+00    1.92302E-17
 1.20550E+00    2.04196E-17
 1.22889E+00    2.54781E-17
 1.27044E+00    3.99525E-17
 1.29409E+00    5.17720E-17
 1.33850E+00    7.39667E-17
 1.36089E+00    8.56100E-17
 1.37811E+00    9.47305E-17
 1.38388E+00    9.77865E-17
 1.40000E+00    1.06324E-16
 1.41325E+00    1.13342E-16
 1.47448E+00    1.45772E-16
 1.48544E+00    1.51577E-16
 1.50488E+00    1.61873E-16
 1.51904E+00    1.69373E-16
 1.54652E+00    1.83928E-16
 1.54965E+00    1.85586E-16
 1.55824E+00    1.90135E-16
 1.55953E+00    1.90819E-16
 1.55990E+00    1.91015E-16
 1.56672E+00    1.94627E-16
 1.60000E+00    2.12253E-16
 1.60926E+00    2.17158E-16
 1.61793E+00    2.21750E-16
 1.64272E+00    2.34880E-16
 1.65018E+00    2.38831E-16
 1.66752E+00    2.48015E-16
 1.67256E+00    2.50684E-16
 1.67589E+00    2.52448E-16
 1.68035E+00    2.54810E-16
 1.80000E+00    3.18182E-16
 2.00000E+00    4.24111E-16
 2.20000E+00    5.30040E-16
 2.40000E+00    3.08890E-14
 2.70000E+00    6.81830E-12
 3.00000E+00    3.44140E-10
 3.50000E+00    3.41420E-08
 4.00000E+00    7.65920E-07
 4.50000E+00    6.98044E-06
 5.00000E+00    3.61140E-05
 5.50000E+00    1.30600E-04
 6.00000E+00    4.05877E-04
 6.50000E+00    1.10911E-03
 7.00000E+00    3.06110E-03
 7.50000E+00    7.73944E-03
 8.00000E+00    1.83719E-02
 8.50000E+00    4.04096E-02
 9.00000E+00    8.26067E-02
 9.50000E+00    1.59705E-01
 1.00000E+01    2.89074E-01
 1.05000E+01    4.93255E-01
 1.10000E+01    8.03774E-01
 1.15000E+01    1.24207E+00
 1.20000E+01    1.83785E+00
 1.25000E+01    2.61010E+00
 1.30000E+01    3.55601E+00
 1.35000E+01    4.70640E+00
 1.40000E+01    6.04016E+00
 1.45000E+01    7.54591E+00
 1.50000E+01    9.23414E+00
 1.55000E+01    1.11068E+01
 1.60000E+01    1.31384E+01
 1.65000E+01    1.53239E+01
 1.70000E+01    1.76673E+01
 1.75000E+01    2.01986E+01
 1.80000E+01    2.28786E+01
 1.85000E+01    2.57080E+01
 1.90000E+01    2.86807E+01
 1.95000E+01    3.17789E+01
 2.00000E+01    3.50192E+01
