# n + Yb168 : (n,xp)    
# jendl.ad   kunieda                           EVAL-Mar14
# 
# # energies =    72
#   E(MeV)        xs(mb) 
 8.82569E-02    0.00000E+00
 9.00000E-02    0.00000E+00
 1.00000E-01    0.00000E+00
 1.50000E-01    0.00000E+00
 2.00000E-01    0.00000E+00
 2.88272E-01    0.00000E+00
 3.00000E-01    0.00000E+00
 4.00000E-01    0.00000E+00
 5.00000E-01    1.25320E-15
 5.88765E-01    2.28250E-14
 6.00000E-01    3.13650E-14
 7.00000E-01    4.10470E-13
 8.00000E-01    4.00090E-12
 9.00000E-01    3.06280E-11
 9.75846E-01    1.24620E-10
 9.89759E-01    1.60400E-10
 1.00000E+00    1.81150E-10
 1.07336E+00    5.95590E-10
 1.10459E+00    9.48307E-10
 1.10460E+00    9.48420E-10
 1.16093E+00    2.11040E-09
 1.16797E+00    2.30240E-09
 1.17823E+00    2.62359E-09
 1.17824E+00    2.62390E-09
 1.20000E+00    3.57590E-09
 1.20419E+00    3.78430E-09
 1.23839E+00    5.90890E-09
 1.24059E+00    6.05940E-09
 1.28467E+00    1.00430E-08
 1.31012E+00    1.33550E-08
 1.40000E+00    3.81960E-08
 1.60000E+00    2.73580E-07
 1.80000E+00    1.41514E-06
 2.00000E+00    5.89309E-06
 2.20000E+00    2.05569E-05
 2.40000E+00    6.14305E-05
 2.70000E+00    2.47183E-04
 3.00000E+00    7.66521E-04
 3.50000E+00    3.34442E-03
 4.00000E+00    8.81796E-03
 4.50000E+00    1.99454E-02
 5.00000E+00    3.73687E-02
 5.50000E+00    6.27332E-02
 6.00000E+00    9.63061E-02
 6.50000E+00    1.34802E-01
 7.00000E+00    1.88761E-01
 7.50000E+00    2.75255E-01
 8.00000E+00    4.03761E-01
 8.50000E+00    6.02167E-01
 9.00000E+00    8.99018E-01
 9.50000E+00    1.33180E+00
 1.00000E+01    1.92788E+00
 1.05000E+01    2.71988E+00
 1.10000E+01    3.73406E+00
 1.15000E+01    4.98632E+00
 1.20000E+01    6.49102E+00
 1.25000E+01    8.24403E+00
 1.30000E+01    1.02413E+01
 1.35000E+01    1.24593E+01
 1.40000E+01    1.48830E+01
 1.45000E+01    1.74922E+01
 1.50000E+01    2.02725E+01
 1.55000E+01    2.32061E+01
 1.60000E+01    2.62714E+01
 1.65000E+01    2.94928E+01
 1.70000E+01    3.28654E+01
 1.75000E+01    3.63563E+01
 1.80000E+01    3.99945E+01
 1.85000E+01    4.37894E+01
 1.90000E+01    4.76933E+01
 1.95000E+01    5.17587E+01
 2.00000E+01    5.59201E+01
