# n + Yb168 : (n,xa)    
# jendl.ad   kunieda                           EVAL-Mar14
# 
# # energies =    72
#   E(MeV)        xs(mb) 
 8.82569E-02    0.00000E+00
 9.00000E-02    0.00000E+00
 1.00000E-01    0.00000E+00
 1.50000E-01    0.00000E+00
 2.00000E-01    0.00000E+00
 2.88272E-01    0.00000E+00
 3.00000E-01    0.00000E+00
 4.00000E-01    0.00000E+00
 5.00000E-01    0.00000E+00
 5.88765E-01    0.00000E+00
 6.00000E-01    0.00000E+00
 7.00000E-01    0.00000E+00
 8.00000E-01    0.00000E+00
 9.00000E-01    0.00000E+00
 9.75846E-01    0.00000E+00
 9.89759E-01    0.00000E+00
 1.00000E+00    0.00000E+00
 1.07336E+00    0.00000E+00
 1.10459E+00    0.00000E+00
 1.10460E+00    0.00000E+00
 1.16093E+00    0.00000E+00
 1.16797E+00    0.00000E+00
 1.17823E+00    0.00000E+00
 1.17824E+00    0.00000E+00
 1.20000E+00    0.00000E+00
 1.20419E+00    0.00000E+00
 1.23839E+00    0.00000E+00
 1.24059E+00    0.00000E+00
 1.28467E+00    0.00000E+00
 1.31012E+00    0.00000E+00
 1.40000E+00    0.00000E+00
 1.60000E+00    0.00000E+00
 1.80000E+00    2.05690E-07
 2.00000E+00    3.13763E-06
 2.20000E+00    8.90636E-06
 2.40000E+00    1.95076E-05
 2.70000E+00    1.04085E-04
 3.00000E+00    2.99512E-04
 3.50000E+00    9.12269E-04
 4.00000E+00    1.94506E-03
 4.50000E+00    3.58287E-03
 5.00000E+00    6.03632E-03
 5.50000E+00    9.18324E-03
 6.00000E+00    1.39545E-02
 6.50000E+00    1.93173E-02
 7.00000E+00    2.57993E-02
 7.50000E+00    3.32393E-02
 8.00000E+00    4.56764E-02
 8.50000E+00    6.42172E-02
 9.00000E+00    9.31798E-02
 9.50000E+00    1.37820E-01
 1.00000E+01    2.08159E-01
 1.05000E+01    3.05331E-01
 1.10000E+01    4.43497E-01
 1.15000E+01    6.22740E-01
 1.20000E+01    8.45825E-01
 1.25000E+01    1.11261E+00
 1.30000E+01    1.42101E+00
 1.35000E+01    1.76753E+00
 1.40000E+01    2.14845E+00
 1.45000E+01    2.55813E+00
 1.50000E+01    2.98216E+00
 1.55000E+01    3.42826E+00
 1.60000E+01    3.87628E+00
 1.65000E+01    4.33381E+00
 1.70000E+01    4.79129E+00
 1.75000E+01    5.24643E+00
 1.80000E+01    5.69660E+00
 1.85000E+01    6.14395E+00
 1.90000E+01    6.57921E+00
 1.95000E+01    7.01019E+00
 2.00000E+01    7.42970E+00
