# n + U 233 :  n        
# jendl4.0   O.Iwamoto,N.Otuka,S.Chiba,et al.  EVAL-JAN10
# uncertainties: n
# # energies =    55
#   E(MeV)       xs(mb) 
 1.80000E+00    0.00000E+00
 1.90000E+00    9.20130E-13
 2.00000E+00    3.67320E-12
 2.30000E+00    6.14940E-11
 2.50000E+00    3.41110E-10
 2.70000E+00    1.93860E-09
 2.85000E+00    1.47700E-08
 3.00000E+00    2.71990E-08
 3.12500E+00    6.30180E-07
 3.25000E+00    1.22697E-06
 3.50000E+00    2.39918E-06
 3.62500E+00    5.77684E-05
 3.75000E+00    1.13690E-04
 4.00000E+00    2.26883E-04
 4.12500E+00    5.64083E-03
 4.25000E+00    1.11340E-02
 4.50000E+00    2.23321E-02
 4.62500E+00    5.64535E-01
 4.75000E+00    1.11025E+00
 5.00000E+00    2.20979E+00
 5.25000E+00    4.79498E+01
 5.50000E+00    9.18645E+01
 5.62500E+00    1.63289E+02
 5.75000E+00    2.33794E+02
 6.00000E+00    3.72730E+02
 6.25000E+00    4.95169E+02
 6.50000E+00    6.19306E+02
 7.00000E+00    8.19738E+02
 7.40000E+00    9.31806E+02
 7.50000E+00    9.50200E+02
 8.00000E+00    1.01709E+03
 8.50000E+00    1.04660E+03
 9.00000E+00    1.06579E+03
 9.50000E+00    1.07274E+03
 1.00000E+01    1.07428E+03
 1.05000E+01    1.07106E+03
 1.10000E+01    1.06299E+03
 1.15000E+01    1.01676E+03
 1.20000E+01    9.57081E+02
 1.25000E+01    9.36865E+02
 1.30000E+01    9.10481E+02
 1.35000E+01    9.00909E+02
 1.40000E+01    8.92549E+02
 1.45000E+01    8.59018E+02
 1.50000E+01    8.29670E+02
 1.55000E+01    7.93891E+02
 1.60000E+01    7.61558E+02
 1.65000E+01    7.34379E+02
 1.70000E+01    7.09966E+02
 1.75000E+01    6.88506E+02
 1.80000E+01    6.68250E+02
 1.85000E+01    6.50533E+02
 1.90000E+01    6.35032E+02
 1.95000E+01    6.21369E+02
 2.00000E+01    6.09088E+02
