# n + Yb168 : (n,xa)    
# jendl4.0   S.Kunieda, A.Ichihara, K.Shibata+ EVAL-FEB10
# 
# # energies =    76
#   E(MeV)        xs(mb) 
 8.82569E-02    0.00000E+00
 9.00000E-02    0.00000E+00
 1.00000E-01    0.00000E+00
 1.20000E-01    0.00000E+00
 1.40000E-01    0.00000E+00
 1.60000E-01    0.00000E+00
 1.80000E-01    0.00000E+00
 2.00000E-01    0.00000E+00
 2.50000E-01    0.00000E+00
 2.88272E-01    0.00000E+00
 3.00000E-01    0.00000E+00
 3.50000E-01    0.00000E+00
 4.00000E-01    0.00000E+00
 4.50000E-01    0.00000E+00
 5.00000E-01    0.00000E+00
 5.50000E-01    0.00000E+00
 5.88765E-01    0.00000E+00
 6.00000E-01    0.00000E+00
 6.50000E-01    0.00000E+00
 7.00000E-01    0.00000E+00
 7.50000E-01    0.00000E+00
 8.00000E-01    0.00000E+00
 8.50000E-01    0.00000E+00
 9.00000E-01    0.00000E+00
 9.50000E-01    0.00000E+00
 9.75846E-01    0.00000E+00
 9.89759E-01    0.00000E+00
 1.00000E+00    0.00000E+00
 1.07336E+00    0.00000E+00
 1.10459E+00    0.00000E+00
 1.16093E+00    0.00000E+00
 1.16797E+00    0.00000E+00
 1.17824E+00    0.00000E+00
 1.20000E+00    0.00000E+00
 1.20419E+00    0.00000E+00
 1.23839E+00    0.00000E+00
 1.24059E+00    0.00000E+00
 1.28467E+00    0.00000E+00
 1.29473E+00    0.00000E+00
 1.40000E+00    0.00000E+00
 1.60000E+00    0.00000E+00
 1.80000E+00    0.00000E+00
 2.00000E+00    0.00000E+00
 2.20000E+00    0.00000E+00
 2.40000E+00    9.58000E-03
 2.60000E+00    2.02700E-02
 2.80000E+00    3.11900E-02
 3.00000E+00    3.85200E-02
 3.25000E+00    4.93900E-02
 3.50000E+00    6.40300E-02
 3.75000E+00    7.30500E-02
 4.00000E+00    7.72600E-02
 4.25000E+00    8.86100E-02
 4.50000E+00    1.01800E-01
 4.75000E+00    1.08600E-01
 5.00000E+00    1.11800E-01
 5.50000E+00    1.37300E-01
 6.00000E+00    1.54300E-01
 6.50000E+00    1.76300E-01
 7.00000E+00    2.03000E-01
 7.50000E+00    2.37700E-01
 8.00000E+00    2.81900E-01
 8.50000E+00    3.49800E-01
 9.00000E+00    4.35800E-01
 9.50000E+00    5.70890E-01
 1.00000E+01    7.33800E-01
 1.10000E+01    1.20251E+00
 1.20000E+01    1.88470E+00
 1.30000E+01    2.76520E+00
 1.40000E+01    3.81950E+00
 1.50000E+01    4.99110E+00
 1.60000E+01    6.21700E+00
 1.70000E+01    7.44000E+00
 1.80000E+01    8.62200E+00
 1.90000E+01    9.73800E+00
 2.00000E+01    1.07730E+01
