# n + Zn 68 :  n        
# jendl4.0   N.Iwamoto                         EVAL-Dec09
# uncertainties: n
# # energies =    98
#   E(MeV)       xs(mb) 
 1.05000E-01    0.00000E+00
 1.10000E-01    1.79090E-06
 1.20000E-01    2.16383E-06
 1.30000E-01    2.38160E-06
 1.40000E-01    2.55730E-06
 1.50000E-01    2.69889E-06
 1.60000E-01    2.79868E-06
 1.70000E-01    2.86060E-06
 1.80000E-01    2.88022E-06
 1.90000E-01    2.89617E-06
 2.00000E-01    2.90166E-06
 2.25000E-01    2.52497E-05
 2.50000E-01    3.18513E-05
 2.75000E-01    3.59989E-05
 3.00000E-01    3.77996E-05
 4.00000E-01    1.85120E-04
 5.00000E-01    5.94208E-04
 6.00000E-01    1.49234E-03
 7.00000E-01    3.21077E-03
 8.00000E-01    6.18753E-03
 9.00000E-01    1.09939E-02
 1.00000E+00    1.83730E-02
 1.09337E+00    2.88080E-02
 1.10000E+00    2.56788E-02
 1.20000E+00    2.70173E-02
 1.30000E+00    3.31932E-02
 1.40000E+00    4.19828E-02
 1.50000E+00    5.34780E-02
 1.60000E+00    6.84630E-02
 1.68053E+00    8.48091E-02
 1.70000E+00    8.62352E-02
 1.80000E+00    1.06865E-01
 1.90000E+00    1.32351E-01
 1.91110E+00    1.33953E-01
 2.00000E+00    1.50291E-01
 2.25000E+00    2.26275E-01
 2.37301E+00    2.79101E-01
 2.40550E+00    2.87313E-01
 2.45334E+00    2.99655E-01
 2.50000E+00    3.03298E-01
 2.54748E+00    3.16933E-01
 2.75000E+00    3.82531E-01
 2.79122E+00    4.01040E-01
 2.86348E+00    4.19755E-01
 2.99979E+00    4.71560E-01
 3.00000E+00    4.78252E-01
 3.00410E+00    4.78265E-01
 3.05389E+00    4.89543E-01
 3.12696E+00    5.11609E-01
 3.14852E+00    5.18376E-01
 3.20043E+00    5.40987E-01
 3.20703E+00    5.42210E-01
 3.21098E+00    5.42282E-01
 3.23143E+00    5.41051E-01
 3.23392E+00    5.40548E-01
 3.33017E+00    5.62916E-01
 3.33590E+00    5.62950E-01
 3.39578E+00    5.81651E-01
 3.43527E+00    5.86389E-01
 3.45140E+00    5.90521E-01
 3.47590E+00    5.99926E-01
 3.48035E+00    5.99790E-01
 3.50000E+00    6.01205E-01
 3.51010E+00    6.02545E-01
 3.53908E+00    6.03497E-01
 4.00000E+00    1.55268E+02
 4.50000E+00    5.08511E+02
 5.00000E+00    8.26163E+02
 5.50000E+00    1.04229E+03
 6.00000E+00    1.17914E+03
 6.50000E+00    1.26765E+03
 7.00000E+00    1.32848E+03
 7.50000E+00    1.37207E+03
 8.00000E+00    1.40265E+03
 8.50000E+00    1.42497E+03
 9.00000E+00    1.43867E+03
 9.50000E+00    1.44619E+03
 1.00000E+01    1.44831E+03
 1.05000E+01    1.43734E+03
 1.10000E+01    1.32592E+03
 1.15000E+01    1.13092E+03
 1.20000E+01    9.32028E+02
 1.25000E+01    7.62977E+02
 1.30000E+01    6.32566E+02
 1.35000E+01    5.32480E+02
 1.40000E+01    4.55821E+02
 1.45000E+01    3.92202E+02
 1.50000E+01    3.42543E+02
 1.55000E+01    3.03195E+02
 1.60000E+01    2.72935E+02
 1.65000E+01    2.48621E+02
 1.70000E+01    2.29542E+02
 1.75000E+01    2.13493E+02
 1.80000E+01    2.00935E+02
 1.85000E+01    1.89261E+02
 1.90000E+01    1.79224E+02
 1.95000E+01    1.70117E+02
 2.00000E+01    1.62082E+02
