# n + Zn 68 : (n,xa)    
# jendl4.0   N.Iwamoto                         EVAL-Dec09
# 
# # energies =   100
#   E(MeV)        xs(mb) 
 1.05000E-01    0.00000E+00
 1.10000E-01    0.00000E+00
 1.20000E-01    0.00000E+00
 1.30000E-01    0.00000E+00
 1.40000E-01    0.00000E+00
 1.50000E-01    0.00000E+00
 1.60000E-01    0.00000E+00
 1.70000E-01    0.00000E+00
 1.80000E-01    0.00000E+00
 1.90000E-01    0.00000E+00
 2.00000E-01    0.00000E+00
 2.25000E-01    0.00000E+00
 2.50000E-01    0.00000E+00
 2.75000E-01    2.11307E-13
 3.00000E-01    4.82423E-13
 4.00000E-01    1.65305E-12
 5.00000E-01    3.21773E-12
 6.00000E-01    4.88562E-12
 7.00000E-01    6.66240E-12
 8.00000E-01    8.58408E-12
 9.00000E-01    1.12276E-11
 1.00000E+00    1.42513E-11
 1.09337E+00    1.71534E-11
 1.10000E+00    1.73612E-11
 1.20000E+00    2.04951E-11
 1.30000E+00    7.29970E-11
 1.40000E+00    2.68180E-10
 1.50000E+00    9.42390E-10
 1.60000E+00    3.28380E-09
 1.68053E+00    8.56990E-09
 1.70000E+00    1.06290E-08
 1.80000E+00    3.20000E-08
 1.90000E+00    9.08520E-08
 1.91110E+00    1.01650E-07
 2.00000E+00    2.23310E-07
 2.25000E+00    1.90049E-06
 2.37301E+00    5.02114E-06
 2.40550E+00    6.29843E-06
 2.45334E+00    8.59122E-06
 2.50000E+00    1.13643E-05
 2.54748E+00    1.54274E-05
 2.75000E+00    5.29640E-05
 2.79122E+00    6.76255E-05
 2.86348E+00    9.96720E-05
 2.99979E+00    2.05261E-04
 3.00000E+00    2.02561E-04
 3.00410E+00    2.06517E-04
 3.05389E+00    2.62586E-04
 3.12695E+00    3.74939E-04
 3.12696E+00    3.74957E-04
 3.14852E+00    4.15016E-04
 3.20043E+00    5.30176E-04
 3.20703E+00    5.45969E-04
 3.21098E+00    5.54837E-04
 3.23143E+00    6.03481E-04
 3.23392E+00    6.09061E-04
 3.33017E+00    9.08179E-04
 3.33590E+00    9.29573E-04
 3.39578E+00    1.18151E-03
 3.43527E+00    1.37908E-03
 3.45140E+00    1.46821E-03
 3.47590E+00    1.61026E-03
 3.48035E+00    1.63429E-03
 3.50000E+00    1.74936E-03
 3.51010E+00    1.81518E-03
 3.53908E+00    2.01889E-03
 3.53909E+00    2.01896E-03
 4.00000E+00    9.67122E-03
 4.50000E+00    3.99984E-02
 5.00000E+00    1.29073E-01
 5.50000E+00    3.36316E-01
 6.00000E+00    7.29759E-01
 6.50000E+00    1.34468E+00
 7.00000E+00    2.14096E+00
 7.50000E+00    2.98208E+00
 8.00000E+00    3.74141E+00
 8.50000E+00    4.31195E+00
 9.00000E+00    4.75077E+00
 9.50000E+00    5.13975E+00
 1.00000E+01    5.61176E+00
 1.05000E+01    6.51818E+00
 1.10000E+01    7.35940E+00
 1.15000E+01    7.88319E+00
 1.20000E+01    8.38909E+00
 1.25000E+01    9.01540E+00
 1.30000E+01    9.84084E+00
 1.35000E+01    1.08332E+01
 1.40000E+01    1.20594E+01
 1.45000E+01    1.34126E+01
 1.50000E+01    1.48989E+01
 1.55000E+01    1.64608E+01
 1.60000E+01    1.81204E+01
 1.65000E+01    1.98070E+01
 1.70000E+01    2.15473E+01
 1.75000E+01    2.32654E+01
 1.80000E+01    2.50166E+01
 1.85000E+01    2.66781E+01
 1.90000E+01    2.83034E+01
 1.95000E+01    2.98332E+01
 2.00000E+01    3.13043E+01
