# n + Sn115 : (n,p)     
# jeff3.3    N.Iwamoto,K.Shibata               EVAL-Dec09
# uncertainties: n
# # energies =    92
#   E(MeV)       xs(mb) 
 1.70000E+00    0.00000E+00
 1.74928E+00    5.68583E-05
 1.77464E+00    6.64087E-05
 1.80000E+00    7.73925E-05
 1.80160E+00    7.81571E-05
 1.82084E+00    8.71645E-05
 1.82084E+00    8.71646E-05
 1.84095E+00    9.77411E-05
 1.87370E+00    1.17272E-04
 1.90000E+00    1.34963E-04
 1.93142E+00    1.60737E-04
 1.96284E+00    1.90894E-04
 1.99133E+00    2.24187E-04
 2.00000E+00    2.35487E-04
 2.01140E+00    2.50574E-04
 2.01406E+00    2.53963E-04
 2.04326E+00    2.95487E-04
 2.07824E+00    4.31578E-04
 2.09517E+00    4.71986E-04
 2.10257E+00    4.90437E-04
 2.13863E+00    5.94378E-04
 2.17469E+00    7.12930E-04
 2.18376E+00    7.46415E-04
 2.21241E+00    8.62848E-04
 2.21588E+00    8.83072E-04
 2.22686E+00    9.27633E-04
 2.24985E+00    1.02749E-03
 2.25000E+00    1.02808E-03
 2.28488E+00    1.20158E-03
 2.32221E+00    1.48426E-03
 2.33413E+00    1.56709E-03
 2.36804E+00    1.82934E-03
 2.37281E+00    1.86963E-03
 2.38596E+00    1.98408E-03
 2.39181E+00    2.03641E-03
 2.44591E+00    2.60674E-03
 2.50000E+00    3.27065E-03
 2.56250E+00    4.38064E-03
 2.62500E+00    5.64400E-03
 2.68750E+00    7.09151E-03
 2.75000E+00    8.75918E-03
 2.87500E+00    1.31238E-02
 3.00000E+00    1.82201E-02
 3.12500E+00    2.81276E-02
 3.25000E+00    3.90306E-02
 3.37500E+00    5.11390E-02
 3.50000E+00    6.46968E-02
 3.75000E+00    1.07286E-01
 4.00000E+00    1.53598E-01
 4.24264E+00    2.14120E-01
 4.50000E+00    2.82424E-01
 4.74342E+00    3.50406E-01
 5.00000E+00    4.29145E-01
 5.24404E+00    4.93541E-01
 5.50000E+00    5.73939E-01
 5.74456E+00    6.32958E-01
 6.00000E+00    7.13873E-01
 6.24500E+00    7.76840E-01
 6.50000E+00    8.67747E-01
 6.75000E+00    9.60596E-01
 7.00000E+00    1.07510E+00
 7.25000E+00    1.21674E+00
 7.50000E+00    1.39108E+00
 7.75000E+00    1.61138E+00
 8.00000E+00    1.87814E+00
 8.25000E+00    2.20649E+00
 8.50000E+00    2.59731E+00
 8.75000E+00    3.05965E+00
 9.00000E+00    3.60118E+00
 9.25000E+00    4.21805E+00
 9.50000E+00    4.92969E+00
 1.00000E+01    6.60774E+00
 1.05000E+01    8.64820E+00
 1.10000E+01    1.10454E+01
 1.15000E+01    1.38026E+01
 1.20000E+01    1.68991E+01
 1.25000E+01    2.03383E+01
 1.30000E+01    2.40601E+01
 1.35000E+01    2.80192E+01
 1.40000E+01    3.21049E+01
 1.45000E+01    3.61598E+01
 1.50000E+01    4.00959E+01
 1.55000E+01    4.36868E+01
 1.60000E+01    4.69813E+01
 1.65000E+01    4.97908E+01
 1.70000E+01    5.22812E+01
 1.75000E+01    5.42751E+01
 1.80000E+01    5.59943E+01
 1.85000E+01    5.72777E+01
 1.90000E+01    5.83236E+01
 1.95000E+01    5.90444E+01
 2.00000E+01    5.95799E+01
