# n + Xe129 : (n,xp)    
# jendl.ad   kunieda                           EVAL-Mar14
# 
# # energies =    80
#   E(MeV)        xs(mb) 
 3.98877E-02    0.00000E+00
 4.00000E-02    0.00000E+00
 5.00000E-02    0.00000E+00
 6.00000E-02    0.00000E+00
 7.00000E-02    0.00000E+00
 8.00000E-02    0.00000E+00
 9.00000E-02    0.00000E+00
 1.00000E-01    0.00000E+00
 1.50000E-01    5.52401E-13
 2.00000E-01    1.34345E-12
 2.37988E-01    2.00160E-12
 2.76426E-01    5.81891E-12
 3.00000E-01    8.78111E-12
 3.20669E-01    1.13783E-11
 3.24228E-01    1.18255E-11
 4.00000E-01    2.13466E-11
 4.14716E-01    2.31957E-11
 4.45660E-01    7.79680E-11
 5.00000E-01    1.79750E-10
 5.22759E-01    2.66590E-10
 5.29370E-01    2.93300E-10
 5.77161E-01    6.27250E-10
 5.93138E-01    8.00020E-10
 6.00000E-01    8.87330E-10
 6.29336E-01    1.41530E-09
 6.70627E-01    2.67720E-09
 6.98382E-01    4.07520E-09
 7.00000E-01    4.15640E-09
 7.77144E-01    1.28140E-08
 8.00000E-01    1.77710E-08
 8.28593E-01    2.65630E-08
 8.29490E-01    2.68950E-08
 8.29752E-01    2.69790E-08
 8.74842E-01    4.95010E-08
 9.00000E-01    6.83180E-08
 9.11394E-01    7.90210E-08
 1.00000E+00    2.30640E-07
 1.20000E+00    1.88560E-06
 1.40000E+00    1.05332E-05
 1.60000E+00    4.44513E-05
 1.80000E+00    1.50708E-04
 2.00000E+00    4.28788E-04
 2.20000E+00    1.05811E-03
 2.40000E+00    2.32324E-03
 2.70000E+00    6.33529E-03
 3.00000E+00    1.44490E-02
 3.50000E+00    4.33599E-02
 4.00000E+00    9.87458E-02
 4.50000E+00    1.82117E-01
 5.00000E+00    2.85405E-01
 5.50000E+00    3.91635E-01
 6.00000E+00    4.97724E-01
 6.50000E+00    5.80780E-01
 7.00000E+00    7.15597E-01
 7.50000E+00    9.04243E-01
 8.00000E+00    1.16701E+00
 8.50000E+00    1.58083E+00
 9.00000E+00    2.13889E+00
 9.50000E+00    2.89293E+00
 1.00000E+01    3.84436E+00
 1.05000E+01    5.00832E+00
 1.10000E+01    6.39281E+00
 1.15000E+01    7.99048E+00
 1.20000E+01    9.81337E+00
 1.25000E+01    1.18615E+01
 1.30000E+01    1.41159E+01
 1.35000E+01    1.65688E+01
 1.40000E+01    1.92496E+01
 1.45000E+01    2.21321E+01
 1.50000E+01    2.51936E+01
 1.55000E+01    2.84229E+01
 1.60000E+01    3.18070E+01
 1.65000E+01    3.53329E+01
 1.70000E+01    3.90062E+01
 1.75000E+01    4.28108E+01
 1.80000E+01    4.66732E+01
 1.85000E+01    5.06915E+01
 1.90000E+01    5.48080E+01
 1.95000E+01    5.89619E+01
 2.00000E+01    6.32010E+01
