# n + Xe129 : (n,xa)    
# jendl.ad   kunieda                           EVAL-Mar14
# 
# # energies =    80
#   E(MeV)        xs(mb) 
 3.98877E-02    4.40127E-06
 4.00000E-02    4.36835E-06
 5.00000E-02    3.76522E-06
 6.00000E-02    3.39777E-06
 7.00000E-02    3.15135E-06
 8.00000E-02    2.98172E-06
 9.00000E-02    2.86321E-06
 1.00000E-01    2.78360E-06
 1.50000E-01    2.85801E-06
 2.00000E-01    2.91452E-06
 2.37988E-01    3.19378E-06
 2.76426E-01    3.56588E-06
 3.00000E-01    3.83726E-06
 3.20669E-01    4.10910E-06
 3.24228E-01    3.94703E-06
 4.00000E-01    4.42805E-06
 4.14716E-01    4.62592E-06
 4.45660E-01    4.22483E-06
 5.00000E-01    4.61335E-06
 5.22759E-01    4.92316E-06
 5.29370E-01    5.02003E-06
 5.77161E-01    5.62739E-06
 5.93138E-01    5.79638E-06
 6.00000E-01    5.83519E-06
 6.29336E-01    6.29401E-06
 6.70627E-01    7.11779E-06
 6.98382E-01    7.76080E-06
 7.00000E-01    7.76766E-06
 7.77144E-01    9.77597E-06
 8.00000E-01    1.05229E-05
 8.28593E-01    1.15358E-05
 8.29490E-01    1.15690E-05
 8.29752E-01    1.15787E-05
 8.74842E-01    1.32218E-05
 9.00000E-01    1.42284E-05
 9.11394E-01    1.47157E-05
 1.00000E+00    1.89713E-05
 1.20000E+00    3.55218E-05
 1.40000E+00    6.39403E-05
 1.60000E+00    1.14402E-04
 1.80000E+00    2.00858E-04
 2.00000E+00    3.47020E-04
 2.20000E+00    5.86910E-04
 2.40000E+00    9.65060E-04
 2.70000E+00    1.89848E-03
 3.00000E+00    3.35130E-03
 3.50000E+00    7.08682E-03
 4.00000E+00    1.20698E-02
 4.50000E+00    1.89840E-02
 5.00000E+00    2.56930E-02
 5.50000E+00    3.61348E-02
 6.00000E+00    4.70747E-02
 6.50000E+00    5.91148E-02
 7.00000E+00    7.74030E-02
 7.50000E+00    9.98390E-02
 8.00000E+00    1.33156E-01
 8.50000E+00    1.80964E-01
 9.00000E+00    2.50915E-01
 9.50000E+00    3.51423E-01
 1.00000E+01    4.94554E-01
 1.05000E+01    6.75676E-01
 1.10000E+01    9.22366E-01
 1.15000E+01    1.20286E+00
 1.20000E+01    1.54269E+00
 1.25000E+01    1.91271E+00
 1.30000E+01    2.32982E+00
 1.35000E+01    2.76328E+00
 1.40000E+01    3.23180E+00
 1.45000E+01    3.71238E+00
 1.50000E+01    4.19384E+00
 1.55000E+01    4.68630E+00
 1.60000E+01    5.17870E+00
 1.65000E+01    5.65434E+00
 1.70000E+01    6.13385E+00
 1.75000E+01    6.59635E+00
 1.80000E+01    7.04429E+00
 1.85000E+01    7.47779E+00
 1.90000E+01    7.89633E+00
 1.95000E+01    8.30425E+00
 2.00000E+01    8.69334E+00
