# n + Dy  0 : (n,t)
# jendl4.0   N.Iwamoto,S.Chiba                 EVAL-Nov09
# uncertainties: n
# # energies =    65
#   E(MeV)          xs(mb) 
 7.12399E+00    2.68521E-17
 7.17937E+00    3.88429E-17
 7.20439E+00    4.42602E-17
 7.23498E+00    5.08836E-17
 7.24022E+00    5.20181E-17
 7.25310E+00    5.48069E-17
 7.29244E+00    6.33247E-17
 7.30402E+00    6.58320E-17
 7.33310E+00    7.21284E-17
 7.34266E+00    7.41983E-17
 7.36751E+00    7.95788E-17
 7.40636E+00    8.79907E-17
 7.42437E+00    9.18901E-17
 7.44862E+00    9.71407E-17
 7.45003E+00    9.74460E-17
 7.46422E+00    1.00518E-16
 7.48606E+00    1.05247E-16
 7.49753E+00    1.07731E-16
 7.50749E+00    1.03459E-15
 7.51484E+00    1.94357E-15
 7.53255E+00    4.13376E-15
 7.53466E+00    4.39471E-15
 7.54593E+00    5.78849E-15
 7.56576E+00    8.24093E-15
 7.57119E+00    8.91243E-15
 7.58779E+00    1.09654E-14
 7.59665E+00    1.20611E-14
 7.61104E+00    1.38408E-14
 7.61436E+00    1.42513E-14
 7.62251E+00    1.52593E-14
 7.63308E+00    1.65665E-14
 7.65834E+00    1.96904E-14
 7.66337E+00    2.03125E-14
 7.66739E+00    2.08096E-14
 7.68349E+00    2.28007E-14
 7.69859E+00    2.46682E-14
 7.71469E+00    2.66593E-14
 7.71771E+00    2.70328E-14
 7.72928E+00    2.84637E-14
 7.73794E+00    2.95347E-14
 7.74085E+00    2.98946E-14
 8.50000E+00    5.01131E-12
 9.00000E+00    1.24755E-10
 9.50000E+00    1.59369E-09
 1.00000E+01    1.67993E-08
 1.05000E+01    1.71028E-07
 1.10000E+01    1.42007E-06
 1.15000E+01    8.93942E-06
 1.20000E+01    4.35345E-05
 1.25000E+01    1.71206E-04
 1.30000E+01    5.57494E-04
 1.35000E+01    1.57806E-03
 1.40000E+01    3.93219E-03
 1.45000E+01    8.69656E-03
 1.50000E+01    1.73400E-02
 1.55000E+01    3.14201E-02
 1.60000E+01    5.26151E-02
 1.65000E+01    8.17125E-02
 1.70000E+01    1.19399E-01
 1.75000E+01    1.66297E-01
 1.80000E+01    2.21234E-01
 1.85000E+01    2.84349E-01
 1.90000E+01    3.54311E-01
 1.95000E+01    4.30128E-01
 2.00000E+01    5.10371E-01
