# n + Xe  0 : (n,xp)
# jendl4.0   S.Kunieda, A.Ichihara, K.Shibata+ EVAL-FEB22
#
# # energies =    81
#   E(MeV)          xs(mb) 
 4.46403E-01    6.01170E-12
 4.50000E-01    6.28832E-12
 5.00000E-01    1.54634E-11
 5.50000E-01    3.59659E-11
 6.00000E-01    8.18255E-11
 6.50000E-01    1.86284E-10
 7.00000E-01    3.94534E-10
 7.50000E-01    8.91827E-10
 8.00000E-01    1.78674E-09
 8.50000E-01    3.85527E-09
 9.00000E-01    7.31602E-09
 9.50000E-01    1.50026E-08
 9.77120E-01    2.16823E-08
 1.00000E+00    2.73177E-08
 1.04130E+00    8.30102E-08
 1.20000E+00    2.97015E-07
 1.40000E+00    2.20302E-06
 1.44083E+00    4.04850E-06
 1.59545E+00    1.10372E-05
 1.60000E+00    1.12429E-05
 1.61606E+00    1.34466E-05
 1.75074E+00    3.19267E-05
 1.80000E+00    3.86858E-05
 1.89213E+00    7.09272E-05
 2.00000E+00    1.08677E-04
 2.01230E+00    1.18268E-04
 2.01542E+00    1.20701E-04
 2.14383E+00    2.20828E-04
 2.20000E+00    2.64627E-04
 2.24661E+00    3.37031E-04
 2.27066E+00    3.74391E-04
 2.29077E+00    4.05630E-04
 2.29889E+00    4.18244E-04
 2.38042E+00    5.44893E-04
 2.40000E+00    5.75310E-04
 2.44017E+00    6.88241E-04
 2.44986E+00    7.15483E-04
 2.46319E+00    7.52959E-04
 2.50209E+00    8.62320E-04
 2.52049E+00    9.14048E-04
 2.53051E+00    9.42218E-04
 2.53235E+00    9.47391E-04
 2.54125E+00    9.72412E-04
 2.57079E+00    1.05546E-03
 2.58501E+00    1.09544E-03
 2.60000E+00    1.13758E-03
 2.60354E+00    1.15420E-03
 2.61201E+00    1.19396E-03
 2.61907E+00    1.22710E-03
 2.65376E+00    1.38994E-03
 2.66384E+00    1.43726E-03
 2.80000E+00    2.07642E-03
 3.00000E+00    3.53648E-03
 3.25000E+00    6.30206E-03
 3.50000E+00    1.04653E-02
 3.75000E+00    1.62057E-02
 4.00000E+00    2.35780E-02
 4.25000E+00    3.29744E-02
 4.50000E+00    4.37089E-02
 4.75000E+00    5.52453E-02
 5.00000E+00    6.98213E-02
 5.50000E+00    1.01158E-01
 6.00000E+00    1.39483E-01
 6.50000E+00    1.90135E-01
 7.00000E+00    2.63125E-01
 7.50000E+00    3.72982E-01
 8.00000E+00    5.38948E-01
 8.50000E+00    7.82287E-01
 9.00000E+00    1.13260E+00
 9.50000E+00    1.61584E+00
 1.00000E+01    2.26229E+00
 1.10000E+01    4.15531E+00
 1.20000E+01    7.01319E+00
 1.30000E+01    1.10974E+01
 1.40000E+01    1.64565E+01
 1.50000E+01    2.31798E+01
 1.60000E+01    3.13104E+01
 1.70000E+01    4.07848E+01
 1.80000E+01    5.15753E+01
 1.90000E+01    6.35633E+01
 2.00000E+01    7.66979E+01
