# n + Xe  0 : (n,xn)
# jendl4.0   S.Kunieda, A.Ichihara, K.Shibata+ EVAL-FEB22
#
# # energies =    81
#   E(MeV)          xs(mb) 
 4.46403E-01    4.90714E+02
 4.50000E-01    5.03736E+02
 5.00000E-01    5.61995E+02
 5.50000E-01    6.09006E+02
 6.00000E-01    7.22617E+02
 6.50000E-01    7.58026E+02
 7.00000E-01    8.65143E+02
 7.50000E-01    9.96301E+02
 8.00000E-01    1.05536E+03
 8.50000E-01    1.10193E+03
 9.00000E-01    1.17361E+03
 9.50000E-01    1.22350E+03
 9.77120E-01    1.24494E+03
 1.00000E+00    1.26532E+03
 1.04130E+00    1.29187E+03
 1.20000E+00    1.40334E+03
 1.40000E+00    1.57447E+03
 1.44083E+00    1.59551E+03
 1.59545E+00    1.69579E+03
 1.60000E+00    1.69896E+03
 1.61606E+00    1.70388E+03
 1.75074E+00    1.77265E+03
 1.80000E+00    1.80557E+03
 1.89213E+00    1.83801E+03
 2.00000E+00    1.89615E+03
 2.01230E+00    1.89935E+03
 2.01542E+00    1.90021E+03
 2.14383E+00    1.94322E+03
 2.20000E+00    1.98236E+03
 2.24661E+00    1.99489E+03
 2.27066E+00    2.00196E+03
 2.29077E+00    2.00816E+03
 2.29889E+00    2.01102E+03
 2.38042E+00    2.05446E+03
 2.40000E+00    2.06787E+03
 2.44017E+00    2.08472E+03
 2.44986E+00    2.09042E+03
 2.46319E+00    2.10029E+03
 2.50209E+00    2.13220E+03
 2.52049E+00    2.14785E+03
 2.53051E+00    2.15662E+03
 2.53235E+00    2.15824E+03
 2.54125E+00    2.16611E+03
 2.57079E+00    2.19276E+03
 2.58501E+00    2.20651E+03
 2.60000E+00    2.22168E+03
 2.60354E+00    2.22293E+03
 2.61201E+00    2.22601E+03
 2.61907E+00    2.22876E+03
 2.65376E+00    2.24231E+03
 2.66384E+00    2.24629E+03
 2.80000E+00    2.30157E+03
 3.00000E+00    2.34779E+03
 3.25000E+00    2.39813E+03
 3.50000E+00    2.43615E+03
 3.75000E+00    2.46511E+03
 4.00000E+00    2.48288E+03
 4.25000E+00    2.48945E+03
 4.50000E+00    2.48500E+03
 4.75000E+00    2.47048E+03
 5.00000E+00    2.44805E+03
 5.50000E+00    2.38950E+03
 6.00000E+00    2.32875E+03
 6.50000E+00    2.27853E+03
 7.00000E+00    2.24869E+03
 7.50000E+00    2.27328E+03
 8.00000E+00    2.37143E+03
 8.50000E+00    2.51338E+03
 9.00000E+00    2.67848E+03
 9.50000E+00    2.90900E+03
 1.00000E+01    3.18760E+03
 1.10000E+01    3.61429E+03
 1.20000E+01    3.82033E+03
 1.30000E+01    3.90112E+03
 1.40000E+01    3.92504E+03
 1.50000E+01    3.92278E+03
 1.60000E+01    3.91113E+03
 1.70000E+01    3.91913E+03
 1.80000E+01    4.00826E+03
 1.90000E+01    4.20578E+03
 2.00000E+01    4.44047E+03
