# n + C  13 : (n,xn)    
# jendl.ad   N.Iwamoto, F.Minato               EVAL-Feb17
# 
# # energies =    95
#   E(MeV)        xs(mb) 
 1.55000E-01    0.00000E+00
 1.60000E-01    2.04110E-11
 1.70000E-01    2.43000E-10
 1.80000E-01    8.93180E-10
 1.90000E-01    2.15120E-09
 2.00000E-01    4.15850E-09
 2.25000E-01    1.30970E-08
 2.50000E-01    2.83110E-08
 2.75000E-01    5.15730E-08
 2.80000E-01    5.72110E-08
 3.00000E-01    8.31100E-08
 3.70000E-01    2.16250E-07
 4.00000E-01    2.93210E-07
 4.60000E-01    4.94550E-07
 5.00000E-01    6.59810E-07
 5.50000E-01    9.01110E-07
 6.00000E-01    1.18051E-06
 6.40000E-01    1.43162E-06
 7.00000E-01    1.86047E-06
 7.30000E-01    2.09826E-06
 8.00000E-01    2.71537E-06
 8.20000E-01    2.90803E-06
 9.00000E-01    3.75343E-06
 9.10000E-01    3.86766E-06
 1.00000E+00    4.98396E-06
 1.10000E+00    6.37920E-06
 1.20000E+00    7.99206E-06
 1.30000E+00    9.77290E-06
 1.40000E+00    1.17912E-05
 1.50000E+00    1.39814E-05
 1.60000E+00    1.64228E-05
 1.70000E+00    1.90473E-05
 1.80000E+00    2.19299E-05
 1.90000E+00    2.50348E-05
 2.00000E+00    2.84528E-05
 2.25000E+00    3.84699E-05
 2.50000E+00    5.09993E-05
 2.75000E+00    6.69226E-05
 3.00000E+00    8.82489E-05
 3.32909E+00    1.28126E-04
 3.50000E+00    2.17299E+01
 3.97031E+00    5.17084E+01
 4.00000E+00    9.47312E+01
 4.15274E+00    1.33714E+02
 4.50000E+00    2.17895E+02
 5.00000E+00    2.90053E+02
 5.50000E+00    4.18050E+02
 6.00000E+00    4.50410E+02
 6.50000E+00    4.67534E+02
 7.00000E+00    4.79191E+02
 7.39644E+00    4.88564E+02
 7.50000E+00    4.86487E+02
 8.00000E+00    5.17412E+02
 8.07315E+00    5.21516E+02
 8.13242E+00    5.28271E+02
 8.28220E+00    5.54571E+02
 8.50000E+00    6.14540E+02
 8.83607E+00    6.47862E+02
 9.00000E+00    6.64417E+02
 9.50000E+00    6.96480E+02
 9.54727E+00    6.98888E+02
 1.00000E+01    7.24772E+02
 1.02367E+01    7.33907E+02
 1.05000E+01    7.44798E+02
 1.06647E+01    7.50440E+02
 1.10000E+01    7.66942E+02
 1.12714E+01    7.76768E+02
 1.15000E+01    7.85267E+02
 1.15871E+01    7.87243E+02
 1.16572E+01    7.89301E+02
 1.18490E+01    7.94826E+02
 1.19395E+01    7.96085E+02
 1.20000E+01    7.96747E+02
 1.25000E+01    7.86885E+02
 1.26593E+01    7.82552E+02
 1.27670E+01    7.80986E+02
 1.28770E+01    7.80093E+02
 1.30000E+01    7.78530E+02
 1.30451E+01    7.77591E+02
 1.30709E+01    7.77286E+02
 1.30817E+01    7.77275E+02
 1.35000E+01    7.71421E+02
 1.40000E+01    7.63324E+02
 1.45000E+01    7.50116E+02
 1.50000E+01    7.40282E+02
 1.55000E+01    7.38276E+02
 1.60000E+01    7.36433E+02
 1.65000E+01    7.31512E+02
 1.70000E+01    7.31384E+02
 1.75000E+01    7.32185E+02
 1.80000E+01    7.30400E+02
 1.85000E+01    7.31194E+02
 1.90000E+01    7.28502E+02
 1.95000E+01    7.26398E+02
 2.00000E+01    7.24186E+02
