# n + In  0 : (n,xp)
# jendl.ad   kunieda                           EVAL-Mar14
#
# # energies =    75
#   E(MeV)          xs(mb) 
 1.50000E-01    0.00000E+00
 2.00000E-01    0.00000E+00
 3.00000E-01    0.00000E+00
 3.95190E-01    0.00000E+00
 4.00000E-01    0.00000E+00
 5.00000E-01    0.00000E+00
 6.00000E-01    9.56756E-12
 6.52538E-01    2.80884E-11
 7.00000E-01    5.36927E-11
 8.00000E-01    2.58456E-10
 9.00000E-01    1.72112E-09
 1.00000E+00    7.76378E-09
 1.03340E+00    1.22571E-08
 1.03891E+00    1.30821E-08
 1.07367E+00    2.03902E-08
 1.11624E+00    3.23327E-08
 1.14157E+00    4.26691E-08
 1.18358E+00    7.27119E-08
 1.20000E+00    8.43148E-08
 1.20171E+00    8.56480E-08
 1.35681E+00    3.84329E-07
 1.36307E+00    4.04013E-07
 1.39304E+00    5.55738E-07
 1.39305E+00    5.55777E-07
 1.40000E+00    5.82519E-07
 1.46598E+00    9.40683E-07
 1.48492E+00    1.21444E-06
 1.50971E+00    1.42982E-06
 1.51744E+00    1.50512E-06
 1.52288E+00    1.56025E-06
 1.54982E+00    1.85011E-06
 1.56586E+00    2.05065E-06
 1.56587E+00    2.05093E-06
 1.58100E+00    2.56854E-06
 1.60000E+00    2.85220E-06
 1.80000E+00    9.74762E-06
 2.00000E+00    2.60272E-05
 2.20000E+00    6.12056E-05
 2.40000E+00    1.30328E-04
 2.70000E+00    3.49316E-04
 3.00000E+00    8.15129E-04
 3.50000E+00    2.86416E-03
 4.00000E+00    8.73754E-03
 4.50000E+00    2.22213E-02
 5.00000E+00    4.69514E-02
 5.50000E+00    8.19751E-02
 6.00000E+00    1.20615E-01
 6.50000E+00    1.72821E-01
 7.00000E+00    2.24709E-01
 7.50000E+00    2.92620E-01
 8.00000E+00    3.96107E-01
 8.50000E+00    5.54004E-01
 9.00000E+00    8.18125E-01
 9.50000E+00    1.21853E+00
 1.00000E+01    1.78349E+00
 1.05000E+01    2.54029E+00
 1.10000E+01    3.50410E+00
 1.15000E+01    4.69731E+00
 1.20000E+01    6.10231E+00
 1.25000E+01    7.75114E+00
 1.30000E+01    9.59801E+00
 1.35000E+01    1.16976E+01
 1.40000E+01    1.39711E+01
 1.45000E+01    1.64454E+01
 1.50000E+01    1.91044E+01
 1.55000E+01    2.19028E+01
 1.60000E+01    2.48566E+01
 1.65000E+01    2.79520E+01
 1.70000E+01    3.11614E+01
 1.75000E+01    3.44661E+01
 1.80000E+01    3.79016E+01
 1.85000E+01    4.14434E+01
 1.90000E+01    4.51024E+01
 1.95000E+01    4.88300E+01
 2.00000E+01    5.26888E+01
