# n + Th228 : (n,tot)   
# jendl.ad   O.Iwamoto, T.Nakagawa, et al.     EVAL-FEB10
# uncertainties: n
# # energies =    69
#   E(MeV)       xs(mb) 
 1.00000E-10    8.63477E+05
 5.00000E-09    2.34793E+05
 1.00000E-08    1.77627E+05
 1.50000E-08    1.49096E+05
 2.00000E-08    1.31038E+05
 2.50000E-08    1.18266E+05
 3.00000E-08    1.08608E+05
 3.50000E-08    9.97638E+04
 4.20000E-08    9.11216E+04
 5.00000E-08    8.39256E+04
 5.80000E-08    7.78882E+04
 6.70000E-08    7.17411E+04
 8.00000E-08    6.47549E+04
 1.00000E-07    5.61126E+04
 1.40000E-07    4.81807E+04
 1.80000E-07    4.28802E+04
 2.20000E-07    3.94039E+04
 2.50000E-07    3.70588E+04
 2.80000E-07    3.53957E+04
 3.00000E-07    3.42397E+04
 3.20000E-07    3.29724E+04
 3.50000E-07    3.12682E+04
 4.00000E-07    2.88865E+04
 5.00000E-07    2.65319E+04
 6.25000E-07    2.51442E+04
 7.80000E-07    2.50069E+04
 8.50000E-07    2.53914E+04
 9.10000E-07    2.59200E+04
 9.50000E-07    2.63566E+04
 9.72000E-07    2.67532E+04
 9.96000E-07    2.72214E+04
 1.02000E-06    2.77749E+04
 1.04500E-06    2.84351E+04
 1.07100E-06    2.92039E+04
 1.09700E-06    3.00777E+04
 1.12300E-06    3.10866E+04
 1.15000E-06    3.58218E+04
 1.30000E-06    5.53581E+04
 1.50000E-06    2.52578E+06
 2.10000E-06    7.06669E+04
 2.60000E-06    1.17984E+04
 3.30000E-06    5.29300E+03
 4.00000E-06    9.62391E+04
 9.87700E-06    3.58346E+04
 1.59680E-05    6.52739E+04
 2.77000E-05    4.55573E+04
 4.80520E-05    3.24685E+04
 7.55014E-05    2.20366E+04
 1.48728E-04    1.26045E+04
 3.67262E-04    6.50110E+03
 9.06898E-04    3.93051E+03
 1.42510E-03    2.88245E+03
 2.23945E-03    2.16720E+03
 3.51910E-03    1.69445E+03
 5.53000E-03    1.35935E+03
 9.11800E-03    1.11627E+03
 1.50300E-02    9.26126E+02
 2.47800E-02    7.63162E+02
 4.08500E-02    6.18318E+02
 6.73400E-02    4.29608E+02
 1.11000E-01    2.99850E+02
 1.83000E-01    2.55717E+02
 3.02000E-01    2.09657E+02
 5.00000E-01    2.21084E+02
 8.21000E-01    4.15469E+02
 1.35300E+00    5.94142E+02
 2.23100E+00    6.88698E+02
 3.67900E+00    6.24185E+02
 6.06500E+00    1.15332E+03
