# n + Ba  0 : (n,n')n
# jendl.ad   N.Iwamoto                         EVAL-Apr14
# uncertainties: n
# # energies =    81
#   E(MeV)          xs(mb) 
 6.66534E-01    3.57983E+01
 7.00000E-01    4.83585E+01
 8.00000E-01    1.08203E+02
 9.00000E-01    1.42590E+02
 9.13682E-01    1.45619E+02
 1.00000E+00    1.62334E+02
 1.05169E+00    1.70615E+02
 1.10000E+00    1.74170E+02
 1.20000E+00    1.83556E+02
 1.26104E+00    1.89918E+02
 1.30000E+00    1.86687E+02
 1.30343E+00    1.86711E+02
 1.40000E+00    1.85832E+02
 1.47458E+00    1.88583E+02
 1.49272E+00    1.89279E+02
 1.50000E+00    1.89518E+02
 1.60000E+00    1.97307E+02
 1.70000E+00    2.07382E+02
 1.80000E+00    2.18219E+02
 1.81091E+00    2.19482E+02
 1.85114E+00    2.36253E+02
 1.87068E+00    2.42693E+02
 1.90000E+00    2.51738E+02
 1.90594E+00    2.53616E+02
 1.91339E+00    2.55900E+02
 1.92157E+00    2.58225E+02
 2.00000E+00    2.78349E+02
 2.05644E+00    2.92085E+02
 2.06248E+00    2.93246E+02
 2.13260E+00    3.19077E+02
 2.19830E+00    3.36426E+02
 2.24532E+00    3.47874E+02
 2.24593E+00    3.47807E+02
 2.25000E+00    3.48424E+02
 2.28773E+00    3.56047E+02
 2.32803E+00    3.63388E+02
 2.35724E+00    3.67540E+02
 2.36127E+00    3.67727E+02
 2.36641E+00    3.68304E+02
 2.37296E+00    3.69165E+02
 2.39048E+00    3.71527E+02
 2.42554E+00    3.75868E+02
 2.44488E+00    3.83016E+02
 2.45677E+00    3.85088E+02
 2.50000E+00    3.94565E+02
 2.75000E+00    4.47651E+02
 3.00000E+00    5.05347E+02
 3.50000E+00    6.01314E+02
 4.00000E+00    6.70962E+02
 4.50000E+00    7.13293E+02
 5.00000E+00    7.39213E+02
 5.50000E+00    7.58224E+02
 6.00000E+00    7.77149E+02
 6.50000E+00    7.97453E+02
 7.00000E+00    8.17700E+02
 7.50000E+00    8.31298E+02
 8.00000E+00    8.24462E+02
 8.50000E+00    7.84602E+02
 9.00000E+00    7.13667E+02
 9.50000E+00    6.14243E+02
 1.00000E+01    4.96758E+02
 1.05000E+01    3.88107E+02
 1.10000E+01    3.01799E+02
 1.15000E+01    2.37832E+02
 1.20000E+01    1.91522E+02
 1.25000E+01    1.58130E+02
 1.30000E+01    1.34088E+02
 1.35000E+01    1.16737E+02
 1.40000E+01    1.04025E+02
 1.45000E+01    9.46685E+01
 1.50000E+01    8.75356E+01
 1.55000E+01    8.19262E+01
 1.60000E+01    7.71021E+01
 1.65000E+01    7.35288E+01
 1.70000E+01    7.02022E+01
 1.75000E+01    6.71800E+01
 1.80000E+01    6.45155E+01
 1.85000E+01    6.19282E+01
 1.90000E+01    5.98957E+01
 1.95000E+01    5.75788E+01
 2.00000E+01    5.59312E+01
