# n + Cf251 : (n,xn)    
# jendl4.0   O.Iwamoto,T.Nakagawa,+            EVAL-JAN10
# 
# # energies =    82
#   E(MeV)        xs(mb) 
 2.49247E-02    0.00000E+00
 3.00000E-02    2.31962E+02
 4.80201E-02    3.57838E+02
 5.00000E-02    3.71425E+02
 7.00000E-02    5.04234E+02
 1.00000E-01    6.93042E+02
 1.03077E-01    7.08486E+02
 1.06155E-01    7.23939E+02
 1.06731E-01    7.28023E+02
 1.20000E-01    8.07129E+02
 1.40000E-01    9.13076E+02
 1.47048E-01    9.48940E+02
 1.66978E-01    1.04572E+03
 1.70000E-01    1.06020E+03
 1.78404E-01    1.10032E+03
 2.00000E-01    1.28257E+03
 2.12570E-01    1.34248E+03
 2.12571E-01    1.34249E+03
 2.38715E-01    1.47749E+03
 2.40302E-01    1.48483E+03
 2.50000E-01    1.52849E+03
 2.59478E-01    1.56861E+03
 2.96888E-01    1.72694E+03
 3.00000E-01    1.73933E+03
 3.20573E-01    1.77333E+03
 3.26657E-01    1.78243E+03
 4.00000E-01    1.87311E+03
 5.00000E-01    2.03361E+03
 6.00000E-01    2.09985E+03
 7.00000E-01    2.20564E+03
 8.00000E-01    2.28034E+03
 9.00000E-01    2.36097E+03
 1.00000E+00    2.44772E+03
 1.10000E+00    2.52928E+03
 1.20000E+00    2.60438E+03
 1.30000E+00    2.66429E+03
 1.40000E+00    2.71485E+03
 1.50000E+00    2.74013E+03
 1.60000E+00    2.75768E+03
 1.70000E+00    2.74875E+03
 1.80000E+00    2.73424E+03
 1.90000E+00    2.70038E+03
 2.00000E+00    2.66289E+03
 2.10000E+00    2.61448E+03
 2.30000E+00    2.51186E+03
 2.50000E+00    2.40581E+03
 2.70000E+00    2.30552E+03
 3.00000E+00    2.17141E+03
 3.50000E+00    2.02934E+03
 4.00000E+00    1.93027E+03
 4.50000E+00    1.89039E+03
 5.00000E+00    1.86753E+03
 5.50000E+00    1.95625E+03
 6.00000E+00    2.27758E+03
 6.50000E+00    2.34786E+03
 7.00000E+00    2.20150E+03
 7.50000E+00    1.99158E+03
 8.00000E+00    1.80445E+03
 8.50000E+00    1.63161E+03
 9.00000E+00    1.49435E+03
 9.50000E+00    1.37871E+03
 1.00000E+01    1.29221E+03
 1.05000E+01    1.22761E+03
 1.10000E+01    1.17730E+03
 1.15000E+01    1.13686E+03
 1.20000E+01    1.09495E+03
 1.25000E+01    1.04540E+03
 1.30000E+01    9.98035E+02
 1.35000E+01    9.64018E+02
 1.40000E+01    9.39729E+02
 1.45000E+01    9.22700E+02
 1.50000E+01    9.13054E+02
 1.55000E+01    8.89584E+02
 1.60000E+01    8.75338E+02
 1.65000E+01    8.53104E+02
 1.70000E+01    8.32214E+02
 1.75000E+01    8.14785E+02
 1.80000E+01    7.98174E+02
 1.85000E+01    7.84669E+02
 1.90000E+01    7.71303E+02
 1.95000E+01    7.50082E+02
 2.00000E+01    7.37699E+02
