# n + Cd112 : (n,xa)    
# jendl4.0   S.Kunieda, A.Ichihara, K.Shibata+ EVAL-FEB22
# 
# # energies =    85
#   E(MeV)        xs(mb) 
 6.23086E-01    7.50564E-11
 6.50000E-01    7.13800E-11
 7.00000E-01    8.21700E-11
 7.50000E-01    1.01600E-10
 8.00000E-01    1.43900E-10
 8.50000E-01    1.90900E-10
 9.00000E-01    2.80700E-10
 9.50000E-01    3.79400E-10
 1.00000E+00    5.65500E-10
 1.20000E+00    2.35900E-09
 1.23550E+00    3.47485E-09
 1.32422E+00    6.26385E-09
 1.40000E+00    8.64600E-09
 1.42834E+00    1.09676E-08
 1.44611E+00    1.24232E-08
 1.48210E+00    1.53716E-08
 1.60000E+00    2.50300E-08
 1.80000E+00    7.88100E-08
 1.88761E+00    1.53582E-07
 1.88786E+00    1.53798E-07
 2.00000E+00    2.49500E-07
 2.02341E+00    2.96897E-07
 2.08319E+00    4.17960E-07
 2.10051E+00    4.53041E-07
 2.14084E+00    5.34691E-07
 2.17563E+00    6.05141E-07
 2.18653E+00    6.27229E-07
 2.18757E+00    6.29333E-07
 2.20000E+00    6.54500E-07
 2.25121E+00    8.80724E-07
 2.32134E+00    1.19051E-06
 2.32578E+00    1.21012E-06
 2.35605E+00    1.34384E-06
 2.39471E+00    1.51464E-06
 2.40000E+00    1.53800E-06
 2.42481E+00    1.78139E-06
 2.43796E+00    1.91038E-06
 2.44585E+00    1.98778E-06
 2.47655E+00    2.28899E-06
 2.51586E+00    2.67454E-06
 2.52354E+00    2.74996E-06
 2.52924E+00    2.80588E-06
 2.52948E+00    2.80816E-06
 2.53969E+00    2.90834E-06
 2.55583E+00    3.06671E-06
 2.59337E+00    3.43493E-06
 2.59482E+00    3.44919E-06
 2.60000E+00    3.50000E-06
 2.60729E+00    3.62768E-06
 2.61234E+00    3.71602E-06
 2.61446E+00    3.75313E-06
 2.65572E+00    4.47573E-06
 2.65875E+00    4.52873E-06
 2.67288E+00    4.77608E-06
 2.68297E+00    4.95277E-06
 2.80000E+00    7.00200E-06
 3.00000E+00    1.22500E-05
 3.25000E+00    2.43300E-05
 3.50000E+00    4.93700E-05
 3.75000E+00    9.18800E-05
 4.00000E+00    1.80100E-04
 4.25000E+00    3.06200E-04
 4.50000E+00    5.57400E-04
 4.75000E+00    8.72100E-04
 5.00000E+00    1.47000E-03
 5.50000E+00    3.00700E-03
 6.00000E+00    6.17500E-03
 6.50000E+00    1.13100E-02
 7.00000E+00    1.89800E-02
 7.50000E+00    2.96800E-02
 8.00000E+00    4.39001E-02
 8.50000E+00    6.22715E-02
 9.00000E+00    8.58261E-02
 9.50000E+00    1.16525E-01
 1.00000E+01    1.58283E-01
 1.10000E+01    3.05071E-01
 1.20000E+01    6.19502E-01
 1.30000E+01    1.23174E+00
 1.40000E+01    2.25720E+00
 1.50000E+01    3.78750E+00
 1.60000E+01    5.79000E+00
 1.70000E+01    8.18200E+00
 1.80000E+01    1.08490E+01
 1.90000E+01    1.36740E+01
 2.00000E+01    1.65540E+01
