# n + Dy156 : (n,n'09)  
# jendl4.0   N.Iwamoto,S.Chiba                 EVAL-Nov09
# uncertainties: n
# # energies =    67
#   E(MeV)       xs(mb) 
 1.17603E+00    0.00000E+00
 1.20000E+00    3.77285E+00
 1.22347E+00    6.25557E+00
 1.30000E+00    1.48056E+01
 1.30157E+00    1.49893E+01
 1.34420E+00    1.99115E+01
 1.37721E+00    2.37260E+01
 1.39125E+00    2.47464E+01
 1.40000E+00    2.54670E+01
 1.41610E+00    2.70394E+01
 1.44658E+00    2.94724E+01
 1.45674E+00    3.04706E+01
 1.48565E+00    3.29700E+01
 1.50000E+00    3.37466E+01
 1.52474E+00    3.56886E+01
 1.53504E+00    3.63050E+01
 1.53615E+00    3.63874E+01
 1.60000E+00    4.12558E+01
 1.61974E+00    4.27383E+01
 1.63515E+00    4.34825E+01
 1.63795E+00    4.36639E+01
 1.68800E+00    4.67151E+01
 1.69077E+00    4.67990E+01
 1.70000E+00    4.72844E+01
 1.73618E+00    4.93727E+01
 1.73997E+00    4.95977E+01
 1.80000E+00    5.29981E+01
 1.90000E+00    5.70626E+01
 2.00000E+00    5.87891E+01
 2.25000E+00    5.42868E+01
 2.50000E+00    4.74667E+01
 2.75000E+00    3.67678E+01
 3.00000E+00    2.86476E+01
 3.50000E+00    1.52929E+01
 4.00000E+00    7.75875E+00
 4.50000E+00    3.89982E+00
 5.00000E+00    2.02236E+00
 5.50000E+00    1.13608E+00
 6.00000E+00    7.22203E-01
 6.50000E+00    5.25614E-01
 7.00000E+00    4.26965E-01
 7.50000E+00    3.72273E-01
 8.00000E+00    3.37297E-01
 8.50000E+00    3.11541E-01
 9.00000E+00    2.90544E-01
 9.50000E+00    2.72375E-01
 1.00000E+01    2.56150E-01
 1.05000E+01    2.41543E-01
 1.10000E+01    2.27970E-01
 1.15000E+01    2.15695E-01
 1.20000E+01    2.04211E-01
 1.25000E+01    1.93798E-01
 1.30000E+01    1.84049E-01
 1.35000E+01    1.75156E-01
 1.40000E+01    1.66826E-01
 1.45000E+01    1.59173E-01
 1.50000E+01    1.52001E-01
 1.55000E+01    1.45207E-01
 1.60000E+01    1.39013E-01
 1.65000E+01    1.33285E-01
 1.70000E+01    1.27679E-01
 1.75000E+01    1.22436E-01
 1.80000E+01    1.17500E-01
 1.85000E+01    1.12923E-01
 1.90000E+01    1.08724E-01
 1.95000E+01    1.04418E-01
 2.00000E+01    1.00497E-01
