# n + Dy156 : (n,el)    
# jendl4.0   N.Iwamoto,S.Chiba                 EVAL-Nov09
# uncertainties: n
# # energies =    69
#   E(MeV)       xs(mb) 
 1.00000E-10    5.97962E+03
 5.00000E-09    5.05923E+03
 1.00000E-08    5.03210E+03
 1.50000E-08    5.02045E+03
 2.00000E-08    5.01328E+03
 2.50000E-08    5.00821E+03
 3.00000E-08    5.00430E+03
 3.50000E-08    5.00003E+03
 4.20000E-08    4.99595E+03
 5.00000E-08    4.99168E+03
 5.80000E-08    4.98743E+03
 6.70000E-08    4.98286E+03
 8.00000E-08    4.97609E+03
 1.00000E-07    4.96402E+03
 1.40000E-07    4.94788E+03
 1.80000E-07    4.93190E+03
 2.20000E-07    4.91784E+03
 2.50000E-07    4.90590E+03
 2.80000E-07    4.89582E+03
 3.00000E-07    4.88734E+03
 3.20000E-07    4.87669E+03
 3.50000E-07    4.85971E+03
 4.00000E-07    4.82681E+03
 5.00000E-07    4.77333E+03
 6.25000E-07    4.69961E+03
 7.80000E-07    4.63249E+03
 8.50000E-07    4.59089E+03
 9.10000E-07    4.55697E+03
 9.50000E-07    4.53485E+03
 9.72000E-07    4.51815E+03
 9.96000E-07    4.50034E+03
 1.02000E-06    4.48117E+03
 1.04500E-06    4.46117E+03
 1.07100E-06    4.43991E+03
 1.09700E-06    4.41761E+03
 1.12300E-06    4.39488E+03
 1.15000E-06    4.31144E+03
 1.30000E-06    4.10948E+03
 1.50000E-06    3.08561E+03
 2.10000E-06    6.79378E+03
 2.60000E-06    1.20137E+04
 3.30000E-06    1.32225E+04
 4.00000E-06    5.99058E+03
 9.87700E-06    1.25259E+04
 1.59680E-05    2.40080E+04
 2.77000E-05    2.56341E+04
 4.80520E-05    8.72775E+04
 7.55014E-05    8.22764E+04
 1.48728E-04    6.61350E+04
 3.67262E-04    4.94135E+04
 9.06898E-04    3.91469E+04
 1.42510E-03    3.36628E+04
 2.23945E-03    2.87363E+04
 3.51910E-03    2.44350E+04
 5.53000E-03    2.06703E+04
 9.11800E-03    1.73932E+04
 1.50300E-02    1.46954E+04
 2.47800E-02    1.24445E+04
 4.08500E-02    1.05991E+04
 6.73400E-02    9.09736E+03
 1.11000E-01    7.85418E+03
 1.83000E-01    6.71186E+03
 3.02000E-01    5.77769E+03
 5.00000E-01    5.10406E+03
 8.21000E-01    4.44246E+03
 1.35300E+00    3.82335E+03
 2.23100E+00    3.13287E+03
 3.67900E+00    2.37901E+03
 6.06500E+00    2.08000E+03
