# n + Dy156 : (n,n'17)  
# jendl4.0   N.Iwamoto,S.Chiba                 EVAL-Nov09
# uncertainties: n
# # energies =    56
#   E(MeV)       xs(mb) 
 1.45674E+00    0.00000E+00
 1.48565E+00    4.92745E+01
 1.50000E+00    5.75832E+01
 1.52474E+00    6.80855E+01
 1.53504E+00    7.04560E+01
 1.53615E+00    7.07525E+01
 1.60000E+00    8.47121E+01
 1.61974E+00    8.78833E+01
 1.63515E+00    9.00322E+01
 1.63795E+00    9.03966E+01
 1.68800E+00    9.57781E+01
 1.69077E+00    9.60180E+01
 1.70000E+00    9.67490E+01
 1.73618E+00    9.95953E+01
 1.73997E+00    9.98829E+01
 1.80000E+00    1.03029E+02
 1.90000E+00    1.04739E+02
 2.00000E+00    1.02501E+02
 2.25000E+00    8.69521E+01
 2.50000E+00    7.11294E+01
 2.75000E+00    5.22401E+01
 3.00000E+00    3.82689E+01
 3.50000E+00    1.82436E+01
 4.00000E+00    8.30694E+00
 4.50000E+00    3.76835E+00
 5.00000E+00    1.75638E+00
 5.50000E+00    8.75227E-01
 6.00000E+00    4.90405E-01
 6.50000E+00    3.20353E-01
 7.00000E+00    2.42298E-01
 7.50000E+00    2.03550E-01
 8.00000E+00    1.81460E-01
 8.50000E+00    1.66592E-01
 9.00000E+00    1.55118E-01
 9.50000E+00    1.45460E-01
 1.00000E+01    1.36939E-01
 1.05000E+01    1.29299E-01
 1.10000E+01    1.22194E-01
 1.15000E+01    1.15758E-01
 1.20000E+01    1.09728E-01
 1.25000E+01    1.04237E-01
 1.30000E+01    9.90961E-02
 1.35000E+01    9.43852E-02
 1.40000E+01    8.99758E-02
 1.45000E+01    8.59080E-02
 1.50000E+01    8.20994E-02
 1.55000E+01    7.84943E-02
 1.60000E+01    7.51609E-02
 1.65000E+01    7.21442E-02
 1.70000E+01    6.91379E-02
 1.75000E+01    6.63087E-02
 1.80000E+01    6.37116E-02
 1.85000E+01    6.12564E-02
 1.90000E+01    5.89907E-02
 1.95000E+01    5.66802E-02
 2.00000E+01    5.45896E-02
