# n + Dy156 : (n,h)     
# jendl4.0   N.Iwamoto,S.Chiba                 EVAL-Nov09
# uncertainties: n
# # energies =    55
#   E(MeV)       xs(mb) 
 3.70029E+00    0.00000E+00
 3.82416E+00    3.97010E-33
 4.07368E+00    1.26170E-32
 4.38535E+00    5.46630E-31
 4.42259E+00    6.10430E-31
 4.52104E+00    7.79120E-31
 4.70298E+00    1.55070E-30
 4.75465E+00    1.77070E-30
 4.83536E+00    2.11470E-30
 4.84360E+00    2.14980E-30
 4.85212E+00    2.18610E-30
 4.89002E+00    2.34760E-30
 4.94137E+00    2.56650E-30
 4.94959E+00    2.60150E-30
 4.96001E+00    2.64590E-30
 4.97224E+00    2.69800E-30
 4.98554E+00    2.75470E-30
 5.00283E+00    2.82840E-30
 5.00414E+00    2.83610E-30
 5.07412E+00    3.27610E-30
 5.07499E+00    3.28170E-30
 5.10685E+00    3.49290E-30
 5.11344E+00    3.53720E-30
 5.12386E+00    3.60810E-30
 5.12760E+00    3.63370E-30
 5.14214E+00    3.73420E-30
 6.00000E+00    9.69070E-30
 6.50000E+00    1.16780E-26
 7.00000E+00    7.20070E-23
 7.50000E+00    5.45610E-20
 8.00000E+00    9.52440E-18
 8.50000E+00    5.69730E-16
 9.00000E+00    1.52040E-14
 9.50000E+00    2.17430E-13
 1.00000E+01    1.90390E-12
 1.05000E+01    1.13210E-11
 1.10000E+01    4.94290E-11
 1.15000E+01    1.73600E-10
 1.20000E+01    5.51050E-10
 1.25000E+01    1.91150E-09
 1.30000E+01    7.97160E-09
 1.35000E+01    3.63930E-08
 1.40000E+01    1.51080E-07
 1.45000E+01    4.97010E-07
 1.50000E+01    1.61103E-06
 1.55000E+01    4.62865E-06
 1.60000E+01    1.21211E-05
 1.65000E+01    2.76212E-05
 1.70000E+01    5.90607E-05
 1.75000E+01    1.18750E-04
 1.80000E+01    2.26835E-04
 1.85000E+01    3.99339E-04
 1.90000E+01    6.78255E-04
 1.95000E+01    1.11074E-03
 2.00000E+01    1.75888E-03
