# n + Dy156 : (n,n'03)  
# jendl4.0   N.Iwamoto,S.Chiba                 EVAL-Nov09
# uncertainties: n
# # energies =    78
#   E(MeV)       xs(mb) 
 6.79970E-01    0.00000E+00
 7.00000E-01    9.60881E+01
 7.75424E-01    1.58055E+02
 8.00000E-01    1.68271E+02
 8.34000E-01    1.79067E+02
 8.96261E-01    1.89628E+02
 9.00000E-01    1.89552E+02
 1.00000E+00    1.90749E+02
 1.02869E+00    1.89819E+02
 1.09532E+00    1.85772E+02
 1.10000E+00    1.85420E+02
 1.17603E+00    1.80102E+02
 1.20000E+00    1.78157E+02
 1.22347E+00    1.76463E+02
 1.30000E+00    1.70895E+02
 1.30157E+00    1.70768E+02
 1.34420E+00    1.61401E+02
 1.37721E+00    1.57543E+02
 1.39125E+00    1.55848E+02
 1.40000E+00    1.53718E+02
 1.41610E+00    1.51225E+02
 1.44658E+00    1.47013E+02
 1.45674E+00    1.45709E+02
 1.48565E+00    1.40502E+02
 1.50000E+00    1.38286E+02
 1.52474E+00    1.34886E+02
 1.53504E+00    1.32714E+02
 1.53615E+00    1.32533E+02
 1.60000E+00    1.23478E+02
 1.61974E+00    1.20953E+02
 1.63515E+00    1.19000E+02
 1.63795E+00    1.17989E+02
 1.68800E+00    1.10778E+02
 1.69077E+00    1.10420E+02
 1.70000E+00    1.08412E+02
 1.73618E+00    1.03515E+02
 1.73997E+00    1.03057E+02
 1.80000E+00    9.64752E+01
 1.90000E+00    8.59278E+01
 2.00000E+00    7.48891E+01
 2.25000E+00    5.09362E+01
 2.50000E+00    3.50212E+01
 2.75000E+00    2.28306E+01
 3.00000E+00    1.50411E+01
 3.50000E+00    6.30342E+00
 4.00000E+00    2.63048E+00
 4.50000E+00    1.09574E+00
 5.00000E+00    4.54363E-01
 5.50000E+00    1.87754E-01
 6.00000E+00    7.75125E-02
 6.50000E+00    3.17423E-02
 7.00000E+00    1.25264E-02
 7.50000E+00    5.13784E-03
 8.00000E+00    2.14786E-03
 8.50000E+00    9.19540E-04
 9.00000E+00    4.03679E-04
 9.50000E+00    1.81638E-04
 1.00000E+01    8.36684E-05
 1.05000E+01    3.94644E-05
 1.10000E+01    1.89270E-05
 1.15000E+01    9.29405E-06
 1.20000E+01    4.63215E-06
 1.25000E+01    2.35588E-06
 1.30000E+01    1.21408E-06
 1.35000E+01    6.36920E-07
 1.40000E+01    3.38100E-07
 1.45000E+01    1.82320E-07
 1.50000E+01    9.93720E-08
 1.55000E+01    5.49540E-08
 1.60000E+01    3.06740E-08
 1.65000E+01    1.19975E-03
 1.70000E+01    9.87990E-09
 1.75000E+01    5.69280E-09
 1.80000E+01    3.30660E-09
 1.85000E+01    1.93890E-09
 1.90000E+01    1.33773E-03
 1.95000E+01    2.24502E-03
 2.00000E+01    7.04880E-04
