# n + Dy156 : (n,tot)   
# jendl4.0   N.Iwamoto,S.Chiba                 EVAL-Nov09
# uncertainties: n
# # energies =   171
#   E(MeV)       xs(mb) 
 1.00000E-11    3.59684E+05
 1.00000E-07    1.83007E+04
 4.13990E-07    1.52765E+04
 5.31580E-07    1.50712E+04
 6.82560E-07    1.53501E+04
 8.76420E-07    1.65560E+04
 1.12540E-06    2.03150E+04
 1.44500E-06    3.95496E+04
 1.85540E-06    6.75385E+05
 2.37240E-06    1.38847E+05
 3.05900E-06    1.14778E+06
 3.92790E-06    1.82297E+04
 5.04350E-06    9.17961E+03
 6.47600E-06    8.31688E+03
 8.31530E-06    1.21399E+05
 1.06770E-05    8.13579E+03
 1.37100E-05    3.48722E+05
 1.76030E-05    3.97124E+05
 2.26030E-05    1.26472E+05
 2.92030E-05    2.55368E+05
 3.72670E-05    1.11559E+05
 4.78510E-05    1.79263E+05
 6.14420E-05    1.91154E+05
 7.88930E-05    1.69134E+05
 1.01300E-04    1.50068E+05
 1.30070E-04    1.33464E+05
 1.67020E-04    1.18698E+05
 2.14450E-04    1.05566E+05
 2.75360E-04    9.38856E+04
 3.53580E-04    8.34981E+04
 4.54000E-04    7.42606E+04
 5.82950E-04    6.60440E+04
 7.48520E-04    5.87375E+04
 9.61120E-04    5.24089E+04
 1.23410E-03    4.70459E+04
 1.58460E-03    4.22366E+04
 2.03470E-03    3.91501E+04
 2.24870E-03    3.74971E+04
 2.48520E-03    3.63019E+04
 2.61260E-03    3.55269E+04
 2.74650E-03    3.43983E+04
 3.03540E-03    3.29465E+04
 3.35460E-03    3.15553E+04
 3.70740E-03    2.99159E+04
 4.30740E-03    2.75825E+04
 5.53080E-03    2.49272E+04
 7.10170E-03    2.25827E+04
 9.11880E-03    2.05256E+04
 1.17090E-02    1.87458E+04
 1.50340E-02    1.71279E+04
 1.93050E-02    1.60095E+04
 2.18750E-02    1.54618E+04
 2.35790E-02    1.51951E+04
 2.41760E-02    1.50637E+04
 2.47880E-02    1.48692E+04
 2.60580E-02    1.46504E+04
 2.70000E-02    1.44242E+04
 2.85000E-02    1.40227E+04
 3.18280E-02    1.35966E+04
 3.43070E-02    1.30487E+04
 4.08680E-02    1.24173E+04
 4.63090E-02    1.19179E+04
 5.24750E-02    1.15476E+04
 5.65620E-02    1.11097E+04
 6.73790E-02    1.07009E+04
 7.20000E-02    1.04346E+04
 7.95000E-02    1.02215E+04
 8.25000E-02    1.00943E+04
 8.65170E-02    9.83944E+03
 9.80370E-02    9.48616E+03
 1.11090E-01    9.25265E+03
 1.16790E-01    9.12210E+03
 1.22770E-01    8.99333E+03
 1.29070E-01    8.87068E+03
 1.35690E-01    8.75771E+03
 1.42640E-01    8.64632E+03
 1.49960E-01    8.53993E+03
 1.57640E-01    8.43508E+03
 1.65730E-01    8.32483E+03
 1.74220E-01    8.21778E+03
 1.83160E-01    8.11742E+03
 1.92550E-01    8.01223E+03
 2.02420E-01    7.92389E+03
 2.12800E-01    7.84655E+03
 2.23710E-01    7.76524E+03
 2.35180E-01    7.68230E+03
 2.47240E-01    7.56956E+03
 2.73240E-01    7.45083E+03
 2.87250E-01    7.39291E+03
 2.94520E-01    7.36999E+03
 2.97200E-01    7.36083E+03
 2.98500E-01    7.34989E+03
 3.01970E-01    7.28799E+03
 3.33730E-01    7.18573E+03
 3.68830E-01    7.10421E+03
 3.87740E-01    7.05765E+03
 4.07620E-01    7.00448E+03
 4.50490E-01    6.94371E+03
 4.97870E-01    6.89831E+03
 5.23400E-01    6.88250E+03
 5.50230E-01    6.86728E+03
 5.78440E-01    6.85128E+03
 6.08100E-01    6.83783E+03
 6.39280E-01    6.83336E+03
 6.72060E-01    6.82925E+03
 7.06510E-01    6.82493E+03
 7.42740E-01    6.82135E+03
 7.80820E-01    6.82134E+03
 8.20850E-01    6.82356E+03
 8.62940E-01    6.82619E+03
 9.07180E-01    6.82920E+03
 9.61640E-01    6.83212E+03
 1.00260E+00    6.83654E+03
 1.10800E+00    6.84153E+03
 1.16480E+00    6.84409E+03
 1.22460E+00    6.83762E+03
 1.28730E+00    6.82859E+03
 1.35340E+00    6.81910E+03
 1.42270E+00    6.80913E+03
 1.49570E+00    6.79546E+03
 1.57240E+00    6.76851E+03
 1.65300E+00    6.73890E+03
 1.73770E+00    6.70777E+03
 1.82680E+00    6.67503E+03
 1.92050E+00    6.64061E+03
 2.01900E+00    6.59852E+03
 2.12250E+00    6.54579E+03
 2.23130E+00    6.49981E+03
 2.30690E+00    6.47129E+03
 2.34570E+00    6.45674E+03
 2.36530E+00    6.44692E+03
 2.38520E+00    6.42197E+03
 2.46600E+00    6.36841E+03
 2.59240E+00    6.30000E+03
 2.72530E+00    6.22809E+03
 2.86500E+00    6.15248E+03
 3.01190E+00    6.07297E+03
 3.16640E+00    5.98939E+03
 3.32870E+00    5.85912E+03
 3.67880E+00    5.68137E+03
 4.06570E+00    5.50044E+03
 4.49330E+00    5.36356E+03
 4.72370E+00    5.27968E+03
 4.96590E+00    5.19474E+03
 5.22050E+00    5.11950E+03
 5.48810E+00    5.04703E+03
 5.76950E+00    4.98569E+03
 6.06530E+00    4.93015E+03
 6.37630E+00    4.89181E+03
 6.59240E+00    4.87049E+03
 6.70320E+00    4.85047E+03
 7.04690E+00    4.82346E+03
 7.40820E+00    4.80730E+03
 7.78800E+00    4.79994E+03
 8.18730E+00    4.80638E+03
 8.60710E+00    4.81665E+03
 9.04840E+00    4.83787E+03
 9.51230E+00    4.86266E+03
 1.00000E+01    4.89295E+03
 1.05130E+01    4.92812E+03
 1.10520E+01    4.96511E+03
 1.16180E+01    5.00334E+03
 1.22140E+01    5.03994E+03
 1.28400E+01    5.07424E+03
 1.34990E+01    5.09640E+03
 1.38400E+01    5.11024E+03
 1.41910E+01    5.11994E+03
 1.45500E+01    5.12908E+03
 1.49180E+01    5.13708E+03
 1.56830E+01    5.13807E+03
 1.64870E+01    5.12537E+03
