# n + Dy156 : (n,n'16)  
# jendl4.0   N.Iwamoto,S.Chiba                 EVAL-Nov09
# uncertainties: n
# # energies =    57
#   E(MeV)       xs(mb) 
 1.44658E+00    0.00000E+00
 1.45674E+00    8.00202E-03
 1.48565E+00    3.37724E-02
 1.50000E+00    5.19507E-02
 1.52474E+00    9.16551E-02
 1.53504E+00    1.11294E-01
 1.53615E+00    1.13404E-01
 1.60000E+00    2.69091E-01
 1.61974E+00    3.33368E-01
 1.63515E+00    3.88974E-01
 1.63795E+00    3.99646E-01
 1.68800E+00    6.01841E-01
 1.69077E+00    6.11203E-01
 1.70000E+00    6.51851E-01
 1.73618E+00    8.35507E-01
 1.73997E+00    8.56677E-01
 1.80000E+00    1.21839E+00
 1.90000E+00    1.94112E+00
 2.00000E+00    2.73487E+00
 2.25000E+00    4.51872E+00
 2.50000E+00    5.92741E+00
 2.75000E+00    6.12281E+00
 3.00000E+00    6.15842E+00
 3.50000E+00    4.50550E+00
 4.00000E+00    2.83977E+00
 4.50000E+00    1.67517E+00
 5.00000E+00    9.78128E-01
 5.50000E+00    5.95199E-01
 6.00000E+00    3.94507E-01
 6.50000E+00    2.90698E-01
 7.00000E+00    2.35670E-01
 7.50000E+00    2.04486E-01
 8.00000E+00    1.84663E-01
 8.50000E+00    1.70336E-01
 9.00000E+00    1.58861E-01
 9.50000E+00    1.49046E-01
 1.00000E+01    1.40326E-01
 1.05000E+01    1.32486E-01
 1.10000E+01    1.25194E-01
 1.15000E+01    1.18590E-01
 1.20000E+01    1.12404E-01
 1.25000E+01    1.06772E-01
 1.30000E+01    1.01501E-01
 1.35000E+01    9.66711E-02
 1.40000E+01    9.21510E-02
 1.45000E+01    8.79817E-02
 1.50000E+01    8.40781E-02
 1.55000E+01    8.03754E-02
 1.60000E+01    7.69672E-02
 1.65000E+01    7.38830E-02
 1.70000E+01    7.07935E-02
 1.75000E+01    6.79004E-02
 1.80000E+01    6.52351E-02
 1.85000E+01    6.27200E-02
 1.90000E+01    6.04031E-02
 1.95000E+01    5.80400E-02
 2.00000E+01    5.58898E-02
