# n + Dy156 : (n,g)     
# jendl4.0   N.Iwamoto,S.Chiba                 EVAL-Nov09
# uncertainties: n
# # energies =    69
#   E(MeV)       xs(mb) 
 1.00000E-10    2.27170E+05
 5.00000E-09    6.20943E+04
 1.00000E-08    4.71752E+04
 1.50000E-08    3.97580E+04
 2.00000E-08    3.50870E+04
 2.50000E-08    3.17970E+04
 3.00000E-08    2.93190E+04
 3.50000E-08    2.70546E+04
 4.20000E-08    2.48601E+04
 5.00000E-08    2.30451E+04
 5.80000E-08    2.15324E+04
 6.70000E-08    2.00069E+04
 8.00000E-08    1.82910E+04
 1.00000E-07    1.62097E+04
 1.40000E-07    1.43600E+04
 1.80000E-07    1.31706E+04
 2.20000E-07    1.24253E+04
 2.50000E-07    1.19441E+04
 2.80000E-07    1.16157E+04
 3.00000E-07    1.13963E+04
 3.20000E-07    1.11651E+04
 3.50000E-07    1.08737E+04
 4.00000E-07    1.05253E+04
 5.00000E-07    1.03146E+04
 6.25000E-07    1.04536E+04
 7.80000E-07    1.08286E+04
 8.50000E-07    1.11609E+04
 9.10000E-07    1.14765E+04
 9.50000E-07    1.17004E+04
 9.72000E-07    1.18818E+04
 9.96000E-07    1.20854E+04
 1.02000E-06    1.23101E+04
 1.04500E-06    1.25621E+04
 1.07100E-06    1.28393E+04
 1.09700E-06    1.31389E+04
 1.12300E-06    1.34693E+04
 1.15000E-06    1.48088E+04
 1.30000E-06    1.89158E+04
 1.50000E-06    1.45393E+05
 2.10000E-06    6.14884E+05
 2.60000E-06    1.12816E+06
 3.30000E-06    2.11461E+05
 4.00000E-06    3.59062E+04
 9.87700E-06    1.62102E+05
 1.59680E-05    2.04381E+05
 2.77000E-05    1.60070E+05
 4.80520E-05    9.96641E+04
 7.55014E-05    7.42810E+04
 1.48728E-04    4.21085E+04
 3.67262E-04    2.14279E+04
 9.06898E-04    1.23693E+04
 1.42510E-03    8.70818E+03
 2.23945E-03    6.13246E+03
 3.51910E-03    4.34127E+03
 5.53000E-03    3.08450E+03
 9.11800E-03    2.24358E+03
 1.50300E-02    1.70447E+03
 2.47800E-02    1.34754E+03
 4.08500E-02    1.10703E+03
 6.73400E-02    9.40556E+02
 1.11000E-01    7.90329E+02
 1.83000E-01    6.04483E+02
 3.02000E-01    5.44249E+02
 5.00000E-01    5.63992E+02
 8.21000E-01    5.39653E+02
 1.35300E+00    4.84444E+02
 2.23100E+00    3.43195E+02
 3.67900E+00    1.32765E+02
 6.06500E+00    1.83921E+01
