# n + Dy156 : (n,n'06)  
# jendl4.0   N.Iwamoto,S.Chiba                 EVAL-Nov09
# uncertainties: n
# # energies =    73
#   E(MeV)       xs(mb) 
 8.96261E-01    0.00000E+00
 9.00000E-01    5.20790E+01
 1.00000E+00    1.96780E+02
 1.02869E+00    2.15528E+02
 1.09532E+00    2.40949E+02
 1.10000E+00    2.42519E+02
 1.17603E+00    2.65081E+02
 1.20000E+00    2.71203E+02
 1.22347E+00    2.75401E+02
 1.30000E+00    2.87752E+02
 1.30157E+00    2.87917E+02
 1.34420E+00    2.85232E+02
 1.37721E+00    2.86503E+02
 1.39125E+00    2.85938E+02
 1.40000E+00    2.81741E+02
 1.41610E+00    2.79234E+02
 1.44658E+00    2.75127E+02
 1.45674E+00    2.74238E+02
 1.48565E+00    2.66730E+02
 1.50000E+00    2.64027E+02
 1.52474E+00    2.60188E+02
 1.53504E+00    2.56004E+02
 1.53615E+00    2.55742E+02
 1.60000E+00    2.45406E+02
 1.61974E+00    2.42727E+02
 1.63515E+00    2.40176E+02
 1.63795E+00    2.39285E+02
 1.68800E+00    2.31665E+02
 1.69077E+00    2.31272E+02
 1.70000E+00    2.29310E+02
 1.73618E+00    2.23750E+02
 1.73997E+00    2.23221E+02
 1.80000E+00    2.15433E+02
 1.90000E+00    2.00116E+02
 2.00000E+00    1.81490E+02
 2.25000E+00    1.32893E+02
 2.50000E+00    9.76772E+01
 2.75000E+00    6.65421E+01
 3.00000E+00    4.62832E+01
 3.50000E+00    2.08085E+01
 4.00000E+00    9.18881E+00
 4.50000E+00    4.05259E+00
 5.00000E+00    1.81799E+00
 5.50000E+00    8.57088E-01
 6.00000E+00    4.46144E-01
 6.50000E+00    2.68898E-01
 7.00000E+00    1.90060E-01
 7.50000E+00    1.52641E-01
 8.00000E+00    1.32513E-01
 8.50000E+00    1.19736E-01
 9.00000E+00    1.10282E-01
 9.50000E+00    1.02497E-01
 1.00000E+01    9.56827E-02
 1.05000E+01    8.95678E-02
 1.10000E+01    8.38770E-02
 1.15000E+01    7.86813E-02
 1.20000E+01    7.37846E-02
 1.25000E+01    6.92873E-02
 1.30000E+01    6.50344E-02
 1.35000E+01    6.11001E-02
 1.40000E+01    5.73734E-02
 1.45000E+01    5.38992E-02
 1.50000E+01    5.06049E-02
 1.55000E+01    5.31709E-02
 1.60000E+01    5.09921E-02
 1.65000E+01    4.50779E-02
 1.70000E+01    4.37942E-02
 1.75000E+01    4.53384E-02
 1.80000E+01    4.40921E-02
 1.85000E+01    4.05753E-02
 1.90000E+01    3.53959E-02
 1.95000E+01    3.63224E-02
 2.00000E+01    3.75278E-02
