# n + Dy156 : (n,n'14)  
# jendl4.0   N.Iwamoto,S.Chiba                 EVAL-Nov09
# uncertainties: n
# # energies =    60
#   E(MeV)       xs(mb) 
 1.39125E+00    0.00000E+00
 1.40000E+00    3.49840E+01
 1.41610E+00    5.39555E+01
 1.44658E+00    7.33879E+01
 1.45674E+00    7.80712E+01
 1.48565E+00    8.65279E+01
 1.50000E+00    9.02938E+01
 1.52474E+00    9.59032E+01
 1.53504E+00    9.63789E+01
 1.53615E+00    9.65207E+01
 1.60000E+00    1.04965E+02
 1.61974E+00    1.06891E+02
 1.63515E+00    1.08099E+02
 1.63795E+00    1.08279E+02
 1.68800E+00    1.12126E+02
 1.69077E+00    1.12326E+02
 1.70000E+00    1.12639E+02
 1.73618E+00    1.14041E+02
 1.73997E+00    1.14188E+02
 1.80000E+00    1.16230E+02
 1.90000E+00    1.16028E+02
 2.00000E+00    1.12113E+02
 2.25000E+00    9.28652E+01
 2.50000E+00    7.46907E+01
 2.75000E+00    5.41839E+01
 3.00000E+00    3.91956E+01
 3.50000E+00    1.85188E+01
 4.00000E+00    8.38979E+00
 4.50000E+00    3.78456E+00
 5.00000E+00    1.74773E+00
 5.50000E+00    8.57839E-01
 6.00000E+00    4.70602E-01
 6.50000E+00    3.00439E-01
 7.00000E+00    2.23047E-01
 7.50000E+00    1.85192E-01
 8.00000E+00    1.64039E-01
 8.50000E+00    1.50103E-01
 9.00000E+00    1.39522E-01
 9.50000E+00    1.30703E-01
 1.00000E+01    1.22966E-01
 1.05000E+01    1.16050E-01
 1.10000E+01    1.09633E-01
 1.15000E+01    1.03828E-01
 1.20000E+01    9.83928E-02
 1.25000E+01    9.34493E-02
 1.30000E+01    8.88214E-02
 1.35000E+01    8.45850E-02
 1.40000E+01    8.06194E-02
 1.45000E+01    7.69640E-02
 1.50000E+01    7.35409E-02
 1.55000E+01    7.02804E-02
 1.60000E+01    6.73144E-02
 1.65000E+01    6.45790E-02
 1.70000E+01    6.18952E-02
 1.75000E+01    5.93561E-02
 1.80000E+01    5.70023E-02
 1.85000E+01    5.48194E-02
 1.90000E+01    5.27910E-02
 1.95000E+01    5.06976E-02
 2.00000E+01    4.88282E-02
