# n + Dy156 :  n        
# jendl4.0   N.Iwamoto,S.Chiba                 EVAL-Nov09
# uncertainties: n
# # energies =    98
#   E(MeV)       xs(mb) 
 1.05000E-01    0.00000E+00
 1.10000E-01    2.76999E-03
 1.20000E-01    3.23422E-03
 1.30000E-01    3.63392E-03
 1.38661E-01    3.93533E-03
 1.40000E-01    3.91791E-03
 1.50000E-01    4.10520E-03
 1.60000E-01    4.24217E-03
 1.70000E-01    4.35303E-03
 1.80000E-01    4.44152E-03
 1.90000E-01    4.51111E-03
 2.00000E-01    4.57526E-03
 2.25000E-01    2.22401E-02
 2.50000E-01    3.08471E-02
 2.75000E-01    3.49463E-02
 3.00000E-01    3.76994E-02
 4.00000E-01    1.57239E-01
 4.06805E-01    2.18785E-01
 5.00000E-01    4.57707E-01
 6.00000E-01    1.07304E+00
 6.79970E-01    2.04855E+00
 7.00000E-01    2.10628E+00
 7.75424E-01    3.49573E+00
 8.00000E-01    3.74627E+00
 8.34000E-01    4.50540E+00
 8.96261E-01    5.80504E+00
 9.00000E-01    5.74932E+00
 1.00000E+00    8.37336E+00
 1.02869E+00    9.39151E+00
 1.09532E+00    1.18539E+01
 1.10000E+00    1.19460E+01
 1.17603E+00    1.60633E+01
 1.20000E+00    1.68335E+01
 1.22347E+00    1.83080E+01
 1.30000E+00    2.32287E+01
 1.30157E+00    2.32921E+01
 1.34420E+00    2.53640E+01
 1.37721E+00    2.88737E+01
 1.39125E+00    2.94379E+01
 1.40000E+00    2.94968E+01
 1.41610E+00    3.08057E+01
 1.44658E+00    3.21820E+01
 1.45674E+00    3.44896E+01
 1.48565E+00    3.58291E+01
 1.50000E+00    3.62837E+01
 1.52474E+00    3.83486E+01
 1.53504E+00    3.86229E+01
 1.53615E+00    3.86694E+01
 1.60000E+00    4.42603E+01
 1.61974E+00    4.63589E+01
 1.63515E+00    4.73149E+01
 1.63795E+00    4.73763E+01
 1.68800E+00    5.30239E+01
 1.69077E+00    5.31930E+01
 1.70000E+00    5.35947E+01
 1.73618E+00    5.72173E+01
 1.73997E+00    5.75058E+01
 1.80000E+00    6.52029E+01
 1.90000E+00    1.22529E+02
 2.00000E+00    2.39271E+02
 2.25000E+00    6.58637E+02
 2.50000E+00    9.97937E+02
 2.75000E+00    1.38178E+03
 3.00000E+00    1.65679E+03
 3.50000E+00    2.06748E+03
 4.00000E+00    2.28788E+03
 4.50000E+00    2.39663E+03
 5.00000E+00    2.44432E+03
 5.50000E+00    2.46093E+03
 6.00000E+00    2.46293E+03
 6.50000E+00    2.45782E+03
 7.00000E+00    2.44881E+03
 7.50000E+00    2.43749E+03
 8.00000E+00    2.42494E+03
 8.50000E+00    2.41185E+03
 9.00000E+00    2.39858E+03
 9.50000E+00    2.38529E+03
 1.00000E+01    2.28778E+03
 1.05000E+01    1.98732E+03
 1.10000E+01    1.62170E+03
 1.15000E+01    1.29723E+03
 1.20000E+01    1.04273E+03
 1.25000E+01    8.51202E+02
 1.30000E+01    7.06164E+02
 1.35000E+01    5.94687E+02
 1.40000E+01    5.07510E+02
 1.45000E+01    4.38658E+02
 1.50000E+01    3.83875E+02
 1.55000E+01    3.40956E+02
 1.60000E+01    3.06095E+02
 1.65000E+01    2.77697E+02
 1.70000E+01    2.56400E+02
 1.75000E+01    2.36901E+02
 1.80000E+01    2.22297E+02
 1.85000E+01    2.09926E+02
 1.90000E+01    1.99359E+02
 1.95000E+01    1.89976E+02
 2.00000E+01    1.81698E+02
