# n + Dy156 : (n,n'01)  
# jendl4.0   N.Iwamoto,S.Chiba                 EVAL-Nov09
# uncertainties: n
# # energies =    94
#   E(MeV)       xs(mb) 
 1.38661E-01    0.00000E+00
 1.40000E-01    3.91377E+01
 1.50000E-01    9.02605E+01
 1.60000E-01    1.35492E+02
 1.70000E-01    1.78988E+02
 1.80000E-01    2.20606E+02
 1.90000E-01    2.60625E+02
 2.00000E-01    2.97793E+02
 2.25000E-01    3.83818E+02
 2.50000E-01    4.59776E+02
 2.75000E-01    5.27780E+02
 3.00000E-01    5.88799E+02
 4.00000E-01    7.94226E+02
 4.06805E-01    8.06504E+02
 5.00000E-01    9.48013E+02
 6.00000E-01    1.06053E+03
 6.79970E-01    1.12668E+03
 7.00000E-01    1.12216E+03
 7.75424E-01    1.14729E+03
 8.00000E-01    1.15443E+03
 8.34000E-01    1.16339E+03
 8.96261E-01    1.10352E+03
 9.00000E-01    1.08477E+03
 1.00000E+00    1.02604E+03
 1.02869E+00    1.01738E+03
 1.09532E+00    9.80252E+02
 1.10000E+00    9.78471E+02
 1.17603E+00    9.54122E+02
 1.20000E+00    9.46265E+02
 1.22347E+00    9.37876E+02
 1.30000E+00    9.12447E+02
 1.30157E+00    9.11952E+02
 1.34420E+00    8.84664E+02
 1.37721E+00    8.68922E+02
 1.39125E+00    8.60448E+02
 1.40000E+00    8.48369E+02
 1.41610E+00    8.36825E+02
 1.44658E+00    8.16963E+02
 1.45674E+00    8.11441E+02
 1.48565E+00    7.87479E+02
 1.50000E+00    7.77937E+02
 1.52474E+00    7.63286E+02
 1.53504E+00    7.52904E+02
 1.53615E+00    7.52115E+02
 1.60000E+00    7.16727E+02
 1.61974E+00    7.07893E+02
 1.63515E+00    7.00379E+02
 1.63795E+00    6.98009E+02
 1.68800E+00    6.72411E+02
 1.69077E+00    6.71091E+02
 1.70000E+00    6.65520E+02
 1.73618E+00    6.49483E+02
 1.73997E+00    6.47949E+02
 1.80000E+00    6.25729E+02
 1.90000E+00    5.90985E+02
 2.00000E+00    5.57542E+02
 2.25000E+00    4.76512E+02
 2.50000E+00    4.25160E+02
 2.75000E+00    3.81635E+02
 3.00000E+00    3.53528E+02
 3.50000E+00    3.16688E+02
 4.00000E+00    2.96325E+02
 4.50000E+00    2.83375E+02
 5.00000E+00    2.74264E+02
 5.50000E+00    2.67727E+02
 6.00000E+00    2.62933E+02
 6.50000E+00    2.59004E+02
 7.00000E+00    2.55164E+02
 7.50000E+00    2.50942E+02
 8.00000E+00    2.46190E+02
 8.50000E+00    2.40982E+02
 9.00000E+00    2.35480E+02
 9.50000E+00    2.29864E+02
 1.00000E+01    2.24286E+02
 1.05000E+01    2.18990E+02
 1.10000E+01    2.13694E+02
 1.15000E+01    2.08982E+02
 1.20000E+01    2.04271E+02
 1.25000E+01    2.00237E+02
 1.30000E+01    1.96202E+02
 1.35000E+01    1.92798E+02
 1.40000E+01    1.89394E+02
 1.45000E+01    1.86499E+02
 1.50000E+01    1.83603E+02
 1.55000E+01    1.81091E+02
 1.60000E+01    1.78580E+02
 1.65000E+01    1.76359E+02
 1.70000E+01    1.74137E+02
 1.75000E+01    1.72151E+02
 1.80000E+01    1.70164E+02
 1.85000E+01    1.68387E+02
 1.90000E+01    1.66610E+02
 1.95000E+01    1.65027E+02
 2.00000E+01    1.63445E+02
