# n + Hf  0 : (n,xa)
# jendl4.0   K. Shibata (JAEA)                 EVAL-JUL09
#
# # energies =    82
#   E(MeV)          xs(mb) 
 8.88575E-02    0.00000E+00
 9.00000E-02    0.00000E+00
 1.00000E-01    0.00000E+00
 2.00000E-01    0.00000E+00
 2.91844E-01    0.00000E+00
 3.00000E-01    0.00000E+00
 4.00000E-01    0.00000E+00
 5.00000E-01    0.00000E+00
 6.00000E-01    0.00000E+00
 6.00241E-01    0.00000E+00
 7.00000E-01    0.00000E+00
 8.00000E-01    0.00000E+00
 9.00000E-01    0.00000E+00
 1.00000E+00    0.00000E+00
 1.00346E+00    0.00000E+00
 1.15653E+00    0.00000E+00
 1.23366E+00    0.00000E+00
 1.25000E+00    0.00000E+00
 1.25483E+00    0.00000E+00
 1.30053E+00    0.00000E+00
 1.32088E+00    0.00000E+00
 1.34070E+00    0.00000E+00
 1.34900E+00    0.00000E+00
 1.36981E+00    0.00000E+00
 1.38728E+00    0.00000E+00
 1.39816E+00    0.00000E+00
 1.41261E+00    0.00000E+00
 1.42103E+00    0.00000E+00
 1.45409E+00    0.00000E+00
 1.48956E+00    0.00000E+00
 1.50000E+00    0.00000E+00
 1.51444E+00    0.00000E+00
 1.51722E+00    0.00000E+00
 1.54139E+00    0.00000E+00
 1.54913E+00    0.00000E+00
 1.56824E+00    0.00000E+00
 1.58660E+00    0.00000E+00
 1.60062E+00    0.00000E+00
 1.61621E+00    0.00000E+00
 1.63789E+00    0.00000E+00
 1.65285E+00    0.00000E+00
 1.66254E+00    0.00000E+00
 1.68193E+00    0.00000E+00
 1.68556E+00    0.00000E+00
 1.70966E+00    0.00000E+00
 1.71437E+00    0.00000E+00
 1.72024E+00    0.00000E+00
 1.73192E+00    0.00000E+00
 1.73770E+00    0.00000E+00
 1.74238E+00    0.00000E+00
 1.75903E+00    0.00000E+00
 1.77156E+00    0.00000E+00
 1.77702E+00    0.00000E+00
 1.78708E+00    0.00000E+00
 2.00000E+00    0.00000E+00
 2.50000E+00    3.58608E-04
 3.00000E+00    5.46364E-04
 3.50000E+00    7.10541E-04
 4.00000E+00    1.13863E-03
 4.50000E+00    2.40473E-03
 5.00000E+00    3.04557E-03
 5.50000E+00    4.31919E-03
 6.00000E+00    5.82515E-03
 6.50000E+00    7.81570E-03
 7.00000E+00    1.09162E-02
 7.50000E+00    1.55191E-02
 8.00000E+00    2.24698E-02
 8.50000E+00    3.28237E-02
 9.00000E+00    4.76945E-02
 9.50000E+00    6.94792E-02
 1.00000E+01    9.91074E-02
 1.10000E+01    1.95786E-01
 1.20000E+01    3.60033E-01
 1.30000E+01    6.10395E-01
 1.40000E+01    9.53082E-01
 1.45000E+01    1.15339E+00
 1.50000E+01    1.37885E+00
 1.60000E+01    1.86733E+00
 1.70000E+01    2.39365E+00
 1.80000E+01    2.93475E+00
 1.90000E+01    3.47230E+00
 2.00000E+01    3.99133E+00
