# n + Hf  0 : (n,xn)
# jendl4.0   K. Shibata (JAEA)                 EVAL-JUL09
#
# # energies =    82
#   E(MeV)          xs(mb) 
 8.88575E-02    0.00000E+00
 9.00000E-02    5.59138E+00
 1.00000E-01    9.15338E+01
 2.00000E-01    6.51706E+02
 2.91844E-01    1.03835E+03
 3.00000E-01    1.07737E+03
 4.00000E-01    1.43713E+03
 5.00000E-01    1.73536E+03
 6.00000E-01    1.98577E+03
 6.00241E-01    1.98624E+03
 7.00000E-01    2.23889E+03
 8.00000E-01    2.38051E+03
 9.00000E-01    2.50451E+03
 1.00000E+00    2.60064E+03
 1.00346E+00    2.59985E+03
 1.15653E+00    2.59954E+03
 1.23366E+00    2.76760E+03
 1.25000E+00    2.83183E+03
 1.25483E+00    2.82632E+03
 1.30053E+00    2.79908E+03
 1.32088E+00    2.80193E+03
 1.34070E+00    2.81459E+03
 1.34900E+00    2.82063E+03
 1.36981E+00    2.83828E+03
 1.38728E+00    2.86069E+03
 1.39816E+00    2.87771E+03
 1.41261E+00    2.90099E+03
 1.42103E+00    2.91655E+03
 1.45409E+00    3.00092E+03
 1.48956E+00    3.11402E+03
 1.50000E+00    3.15598E+03
 1.51444E+00    3.14752E+03
 1.51722E+00    3.14596E+03
 1.54139E+00    3.13484E+03
 1.54913E+00    3.13180E+03
 1.56824E+00    3.12538E+03
 1.58660E+00    3.12243E+03
 1.60062E+00    3.12076E+03
 1.61621E+00    3.11924E+03
 1.63789E+00    3.11889E+03
 1.65285E+00    3.12029E+03
 1.66254E+00    3.12262E+03
 1.68193E+00    3.13151E+03
 1.68556E+00    3.13358E+03
 1.70966E+00    3.14746E+03
 1.71437E+00    3.15112E+03
 1.72024E+00    3.15609E+03
 1.73192E+00    3.16611E+03
 1.73770E+00    3.17114E+03
 1.74238E+00    3.17522E+03
 1.75903E+00    3.18978E+03
 1.77156E+00    3.20081E+03
 1.77702E+00    3.20561E+03
 1.78708E+00    3.21452E+03
 2.00000E+00    3.41801E+03
 2.50000E+00    3.35244E+03
 3.00000E+00    3.27506E+03
 3.50000E+00    3.19124E+03
 4.00000E+00    3.13323E+03
 4.50000E+00    3.09579E+03
 5.00000E+00    3.06667E+03
 5.50000E+00    3.03652E+03
 6.00000E+00    3.00426E+03
 6.50000E+00    2.97381E+03
 7.00000E+00    3.00400E+03
 7.50000E+00    3.10816E+03
 8.00000E+00    3.36894E+03
 8.50000E+00    3.83379E+03
 9.00000E+00    4.20839E+03
 9.50000E+00    4.46647E+03
 1.00000E+01    4.61633E+03
 1.10000E+01    4.76676E+03
 1.20000E+01    4.82225E+03
 1.30000E+01    4.83962E+03
 1.40000E+01    4.84005E+03
 1.45000E+01    4.84502E+03
 1.50000E+01    4.88521E+03
 1.60000E+01    5.11452E+03
 1.70000E+01    5.45371E+03
 1.80000E+01    5.74996E+03
 1.90000E+01    5.96460E+03
 2.00000E+01    6.10776E+03
