# n + La139 : (n,xa)    
# jendl.ad   N.Iwamoto                         EVAL-Apr14
# 
# # energies =    97
#   E(MeV)        xs(mb) 
 1.05000E-01    2.00913E-09
 1.10000E-01    2.02785E-09
 1.20000E-01    2.06811E-09
 1.30000E-01    2.11323E-09
 1.40000E-01    2.16289E-09
 1.50000E-01    2.21520E-09
 1.60000E-01    2.27840E-09
 1.67062E-01    2.37150E-09
 1.70000E-01    2.32310E-09
 1.80000E-01    2.36320E-09
 1.90000E-01    2.42818E-09
 2.00000E-01    2.50110E-09
 2.25000E-01    2.70900E-09
 2.50000E-01    2.95220E-09
 2.75000E-01    3.37745E-09
 3.00000E-01    3.80270E-09
 4.00000E-01    6.14050E-09
 5.00000E-01    1.08270E-08
 6.00000E-01    1.83390E-08
 7.00000E-01    3.19574E-08
 8.00000E-01    5.54190E-08
 9.00000E-01    9.37480E-08
 1.00000E+00    1.54719E-07
 1.10000E+00    2.58290E-07
 1.20000E+00    4.24834E-07
 1.21778E+00    4.60360E-07
 1.22781E+00    4.81540E-07
 1.26596E+00    5.39990E-07
 1.30000E+00    6.34100E-07
 1.39133E+00    9.27280E-07
 1.40000E+00    9.37690E-07
 1.43031E+00    1.02457E-06
 1.43086E+00    1.01033E-06
 1.48713E+00    1.16981E-06
 1.50000E+00    1.19256E-06
 1.54887E+00    1.32829E-06
 1.54904E+00    1.32437E-06
 1.56971E+00    1.34180E-06
 1.58950E+00    1.47609E-06
 1.59127E+00    1.47875E-06
 1.60000E+00    1.49184E-06
 1.69552E+00    1.92558E-06
 1.70000E+00    1.94300E-06
 1.72858E+00    2.06311E-06
 1.77399E+00    2.27892E-06
 1.77907E+00    2.48383E-06
 1.79292E+00    2.54979E-06
 1.79293E+00    2.54984E-06
 1.80000E+00    2.58351E-06
 1.83322E+00    2.77204E-06
 1.85034E+00    2.87753E-06
 1.86968E+00    3.00120E-06
 1.90000E+00    3.48379E-06
 1.90664E+00    3.53702E-06
 1.90665E+00    3.53710E-06
 1.93469E+00    3.76189E-06
 1.95498E+00    3.93431E-06
 1.97715E+00    4.12822E-06
 2.00000E+00    4.72474E-06
 2.25000E+00    8.42091E-06
 2.50000E+00    1.52520E-05
 2.75000E+00    2.78634E-05
 3.00000E+00    5.57444E-05
 3.50000E+00    1.73057E-04
 4.00000E+00    4.79491E-04
 4.50000E+00    1.18090E-03
 5.00000E+00    2.38654E-03
 5.50000E+00    4.96996E-03
 6.00000E+00    9.55134E-03
 6.50000E+00    1.72587E-02
 7.00000E+00    2.94976E-02
 7.50000E+00    4.78996E-02
 8.00000E+00    7.43812E-02
 8.50000E+00    1.11474E-01
 9.00000E+00    1.62150E-01
 9.50000E+00    2.29850E-01
 1.00000E+01    3.19150E-01
 1.05000E+01    4.34134E-01
 1.10000E+01    5.79452E-01
 1.15000E+01    7.60250E-01
 1.20000E+01    9.78243E-01
 1.25000E+01    1.23738E+00
 1.30000E+01    1.53606E+00
 1.35000E+01    1.87544E+00
 1.40000E+01    2.25163E+00
 1.45000E+01    2.66280E+00
 1.50000E+01    3.10263E+00
 1.55000E+01    3.57040E+00
 1.60000E+01    4.05613E+00
 1.65000E+01    4.55539E+00
 1.70000E+01    5.05682E+00
 1.75000E+01    5.55686E+00
 1.80000E+01    6.05239E+00
 1.85000E+01    6.53947E+00
 1.90000E+01    7.01768E+00
 1.95000E+01    7.49740E+00
 2.00000E+01    7.96754E+00
