# n + La139 : (n,d)     
# jendl.ad   N.Iwamoto                         EVAL-Apr14
# uncertainties: n
# # energies =    64
#   E(MeV)       xs(mb) 
 4.06344E+00    0.00000E+00
 5.50000E+00    6.42000E-14
 5.50968E+00    2.89470E-12
 5.97583E+00    1.43630E-10
 6.00000E+00    1.50930E-10
 6.16916E+00    6.07160E-09
 6.26928E+00    9.57580E-09
 6.28254E+00    1.00400E-08
 6.29744E+00    1.05610E-08
 6.38778E+00    1.37230E-08
 6.42043E+00    1.48660E-08
 6.49639E+00    1.75250E-08
 6.50000E+00    1.76510E-08
 6.52682E+00    3.95130E-08
 6.66500E+00    1.52150E-07
 6.66537E+00    1.52450E-07
 6.72208E+00    1.98670E-07
 6.86301E+00    3.13550E-07
 6.87799E+00    3.25760E-07
 6.93569E+00    3.72790E-07
 6.96511E+00    3.96770E-07
 6.98450E+00    4.12580E-07
 7.00000E+00    4.25210E-07
 7.00112E+00    4.32820E-07
 7.01617E+00    5.34990E-07
 7.07631E+00    9.43290E-07
 7.13569E+00    1.34643E-06
 7.24100E+00    2.06140E-06
 7.24983E+00    2.12135E-06
 7.27039E+00    2.26093E-06
 7.32953E+00    2.66244E-06
 7.34461E+00    2.76482E-06
 7.39687E+00    3.11962E-06
 7.42665E+00    3.32181E-06
 7.44038E+00    3.41502E-06
 7.44743E+00    3.46288E-06
 7.45433E+00    3.50973E-06
 7.46449E+00    3.57871E-06
 7.50000E+00    3.81979E-06
 8.00000E+00    1.81294E-05
 8.50000E+00    6.03261E-05
 9.00000E+00    2.01224E-04
 9.50000E+00    8.18969E-04
 1.00000E+01    3.37636E-03
 1.05000E+01    1.19661E-02
 1.10000E+01    3.52288E-02
 1.15000E+01    8.76348E-02
 1.20000E+01    1.87451E-01
 1.25000E+01    3.53614E-01
 1.30000E+01    5.98669E-01
 1.35000E+01    9.29345E-01
 1.40000E+01    1.34275E+00
 1.45000E+01    1.83286E+00
 1.50000E+01    2.38975E+00
 1.55000E+01    2.92770E+00
 1.60000E+01    3.64561E+00
 1.65000E+01    4.24313E+00
 1.70000E+01    5.10311E+00
 1.75000E+01    5.79642E+00
 1.80000E+01    6.52987E+00
 1.85000E+01    7.27933E+00
 1.90000E+01    7.89319E+00
 1.95000E+01    8.65063E+00
 2.00000E+01    9.39916E+00
