# n + Dy154 : (n,xd)    
# jendl4.0   N.Iwamoto                         EVAL-Nov09
# 
# # energies =    85
#   E(MeV)        xs(mb) 
 1.05000E-01    0.00000E+00
 1.10000E-01    0.00000E+00
 1.20000E-01    0.00000E+00
 1.30000E-01    0.00000E+00
 1.40000E-01    0.00000E+00
 1.50000E-01    0.00000E+00
 1.60000E-01    0.00000E+00
 1.70000E-01    0.00000E+00
 1.80000E-01    0.00000E+00
 1.90000E-01    0.00000E+00
 2.00000E-01    0.00000E+00
 2.25000E-01    0.00000E+00
 2.50000E-01    0.00000E+00
 2.75000E-01    0.00000E+00
 3.00000E-01    0.00000E+00
 3.36772E-01    0.00000E+00
 4.00000E-01    0.00000E+00
 5.00000E-01    0.00000E+00
 6.00000E-01    0.00000E+00
 6.65150E-01    0.00000E+00
 7.00000E-01    0.00000E+00
 7.51935E-01    0.00000E+00
 8.00000E-01    0.00000E+00
 9.00000E-01    0.00000E+00
 9.11122E-01    0.00000E+00
 1.00000E+00    0.00000E+00
 1.03384E+00    0.00000E+00
 1.06501E+00    0.00000E+00
 1.10000E+00    0.00000E+00
 1.20000E+00    0.00000E+00
 1.21594E+00    0.00000E+00
 1.23210E+00    0.00000E+00
 1.26006E+00    0.00000E+00
 1.30000E+00    0.00000E+00
 1.34305E+00    0.00000E+00
 1.39941E+00    0.00000E+00
 1.40000E+00    0.00000E+00
 1.42970E+00    0.00000E+00
 1.45212E+00    0.00000E+00
 1.50000E+00    0.00000E+00
 1.51753E+00    0.00000E+00
 1.55613E+00    0.00000E+00
 1.60000E+00    0.00000E+00
 1.70000E+00    0.00000E+00
 1.80000E+00    0.00000E+00
 1.90000E+00    0.00000E+00
 2.00000E+00    0.00000E+00
 2.25000E+00    0.00000E+00
 2.50000E+00    0.00000E+00
 2.75000E+00    0.00000E+00
 3.00000E+00    0.00000E+00
 3.50000E+00    0.00000E+00
 4.00000E+00    0.00000E+00
 4.50000E+00    2.84501E-18
 5.00000E+00    1.71708E-16
 5.50000E+00    3.49920E-16
 6.00000E+00    2.68590E-13
 6.50000E+00    1.62420E-10
 7.00000E+00    1.37090E-08
 7.50000E+00    3.95090E-07
 8.00000E+00    5.53726E-06
 8.50000E+00    4.93324E-05
 9.00000E+00    3.10976E-04
 9.50000E+00    1.47387E-03
 1.00000E+01    5.57117E-03
 1.05000E+01    1.73539E-02
 1.10000E+01    4.58323E-02
 1.15000E+01    1.05170E-01
 1.20000E+01    2.13173E-01
 1.25000E+01    3.88195E-01
 1.30000E+01    6.43793E-01
 1.35000E+01    9.87117E-01
 1.40000E+01    1.41665E+00
 1.45000E+01    1.92656E+00
 1.50000E+01    2.50628E+00
 1.55000E+01    3.05232E+00
 1.60000E+01    3.74693E+00
 1.65000E+01    4.52364E+00
 1.70000E+01    5.25179E+00
 1.75000E+01    5.90590E+00
 1.80000E+01    6.72338E+00
 1.85000E+01    7.58385E+00
 1.90000E+01    8.34855E+00
 1.95000E+01    9.28334E+00
 2.00000E+01    9.94204E+00
