# n + Dy154 : (n,xh)    
# jendl4.0   N.Iwamoto                         EVAL-Nov09
# 
# # energies =    85
#   E(MeV)        xs(mb) 
 1.05000E-01    0.00000E+00
 1.10000E-01    0.00000E+00
 1.20000E-01    0.00000E+00
 1.30000E-01    0.00000E+00
 1.40000E-01    0.00000E+00
 1.50000E-01    0.00000E+00
 1.60000E-01    0.00000E+00
 1.70000E-01    0.00000E+00
 1.80000E-01    0.00000E+00
 1.90000E-01    0.00000E+00
 2.00000E-01    0.00000E+00
 2.25000E-01    0.00000E+00
 2.50000E-01    0.00000E+00
 2.75000E-01    0.00000E+00
 3.00000E-01    0.00000E+00
 3.36772E-01    0.00000E+00
 4.00000E-01    0.00000E+00
 5.00000E-01    0.00000E+00
 6.00000E-01    0.00000E+00
 6.65150E-01    0.00000E+00
 7.00000E-01    0.00000E+00
 7.51935E-01    0.00000E+00
 8.00000E-01    0.00000E+00
 9.00000E-01    0.00000E+00
 9.11122E-01    0.00000E+00
 1.00000E+00    0.00000E+00
 1.03384E+00    0.00000E+00
 1.06501E+00    0.00000E+00
 1.10000E+00    0.00000E+00
 1.20000E+00    0.00000E+00
 1.21594E+00    0.00000E+00
 1.23210E+00    0.00000E+00
 1.26006E+00    0.00000E+00
 1.30000E+00    0.00000E+00
 1.34305E+00    0.00000E+00
 1.39941E+00    0.00000E+00
 1.40000E+00    0.00000E+00
 1.42970E+00    0.00000E+00
 1.45212E+00    0.00000E+00
 1.50000E+00    0.00000E+00
 1.51753E+00    0.00000E+00
 1.55613E+00    0.00000E+00
 1.60000E+00    0.00000E+00
 1.70000E+00    0.00000E+00
 1.80000E+00    0.00000E+00
 1.90000E+00    0.00000E+00
 2.00000E+00    0.00000E+00
 2.25000E+00    0.00000E+00
 2.50000E+00    0.00000E+00
 2.75000E+00    2.51265E-30
 3.00000E+00    5.82814E-30
 3.50000E+00    1.26392E-29
 4.00000E+00    4.02442E-29
 4.50000E+00    8.05657E-29
 5.00000E+00    1.30210E-28
 5.50000E+00    1.51570E-24
 6.00000E+00    4.21230E-21
 6.50000E+00    1.77260E-18
 7.00000E+00    1.97410E-16
 7.50000E+00    8.35920E-15
 8.00000E+00    1.71530E-13
 8.50000E+00    2.01430E-12
 9.00000E+00    1.52410E-11
 9.50000E+00    8.11880E-11
 1.00000E+01    3.26580E-10
 1.05000E+01    1.05860E-09
 1.10000E+01    2.97340E-09
 1.15000E+01    8.26440E-09
 1.20000E+01    2.60120E-08
 1.25000E+01    9.59730E-08
 1.30000E+01    3.49860E-07
 1.35000E+01    1.17694E-06
 1.40000E+01    3.54394E-06
 1.45000E+01    9.55784E-06
 1.50000E+01    2.33253E-05
 1.55000E+01    5.07456E-05
 1.60000E+01    1.04784E-04
 1.65000E+01    2.04529E-04
 1.70000E+01    3.79448E-04
 1.75000E+01    6.74259E-04
 1.80000E+01    1.11848E-03
 1.85000E+01    1.79902E-03
 1.90000E+01    2.80072E-03
 1.95000E+01    4.22664E-03
 2.00000E+01    6.19862E-03
