# n + Dy154 :  n        
# jendl4.0   N.Iwamoto                         EVAL-Nov09
# uncertainties: n
# # energies =    85
#   E(MeV)       xs(mb) 
 1.05000E-01    0.00000E+00
 1.10000E-01    2.57566E-03
 1.20000E-01    2.97002E-03
 1.30000E-01    3.31408E-03
 1.40000E-01    3.62445E-03
 1.50000E-01    3.91243E-03
 1.60000E-01    4.16349E-03
 1.70000E-01    4.39545E-03
 1.80000E-01    4.60698E-03
 1.90000E-01    4.79936E-03
 2.00000E-01    4.98219E-03
 2.25000E-01    2.53526E-02
 2.50000E-01    3.13657E-02
 2.75000E-01    3.65224E-02
 3.00000E-01    4.08964E-02
 3.36772E-01    1.12754E-01
 4.00000E-01    1.35911E-01
 5.00000E-01    3.50098E-01
 6.00000E-01    7.75629E-01
 6.65150E-01    1.36845E+00
 7.00000E-01    1.44757E+00
 7.51935E-01    2.19943E+00
 8.00000E-01    2.58369E+00
 9.00000E-01    4.38426E+00
 9.11122E-01    4.93464E+00
 1.00000E+00    6.53376E+00
 1.03384E+00    7.71557E+00
 1.06501E+00    8.67502E+00
 1.10000E+00    9.13127E+00
 1.20000E+00    1.28603E+01
 1.21594E+00    1.39377E+01
 1.23210E+00    1.43915E+01
 1.26006E+00    1.61969E+01
 1.30000E+00    1.76782E+01
 1.34305E+00    2.01418E+01
 1.39941E+00    2.36763E+01
 1.40000E+00    2.36182E+01
 1.42970E+00    2.54526E+01
 1.45212E+00    2.67040E+01
 1.50000E+00    2.90694E+01
 1.51753E+00    3.06506E+01
 1.55613E+00    3.35838E+01
 1.60000E+00    3.64134E+01
 1.70000E+00    8.40398E+01
 1.80000E+00    1.81326E+02
 1.90000E+00    2.95631E+02
 2.00000E+00    4.20057E+02
 2.25000E+00    7.04313E+02
 2.50000E+00    1.06841E+03
 2.75000E+00    1.32827E+03
 3.00000E+00    1.59729E+03
 3.50000E+00    1.93505E+03
 4.00000E+00    2.13072E+03
 4.50000E+00    2.24104E+03
 5.00000E+00    2.30428E+03
 5.50000E+00    2.34173E+03
 6.00000E+00    2.36465E+03
 6.50000E+00    2.37807E+03
 7.00000E+00    2.38415E+03
 7.50000E+00    2.38394E+03
 8.00000E+00    2.37893E+03
 8.50000E+00    2.37018E+03
 9.00000E+00    2.36022E+03
 9.50000E+00    2.34688E+03
 1.00000E+01    2.24480E+03
 1.05000E+01    2.06325E+03
 1.10000E+01    1.83468E+03
 1.15000E+01    1.59810E+03
 1.20000E+01    1.37967E+03
 1.25000E+01    1.19026E+03
 1.30000E+01    1.02788E+03
 1.35000E+01    8.89432E+02
 1.40000E+01    7.71191E+02
 1.45000E+01    6.70827E+02
 1.50000E+01    5.86273E+02
 1.55000E+01    5.17773E+02
 1.60000E+01    4.60084E+02
 1.65000E+01    4.12200E+02
 1.70000E+01    3.73070E+02
 1.75000E+01    3.43270E+02
 1.80000E+01    3.15984E+02
 1.85000E+01    2.95273E+02
 1.90000E+01    2.77805E+02
 1.95000E+01    2.62577E+02
 2.00000E+01    2.49386E+02
