# n + Eu155 : (n,n'01)  
# jendl4.0   N.Iwamoto                         EVAL-Nov09
# uncertainties: n
# # energies =    85
#   E(MeV)       xs(mb) 
 7.91500E-02    0.00000E+00
 8.00000E-02    1.25728E+02
 9.00000E-02    3.06301E+02
 1.00000E-01    3.78039E+02
 1.05013E-01    4.05699E+02
 1.10000E-01    4.13695E+02
 1.20000E-01    4.40902E+02
 1.30000E-01    4.61286E+02
 1.40000E-01    4.78400E+02
 1.50000E-01    4.91384E+02
 1.60000E-01    5.02885E+02
 1.70000E-01    5.14765E+02
 1.70109E-01    5.14892E+02
 1.80000E-01    4.96360E+02
 1.80323E-01    4.96276E+02
 1.90000E-01    4.87611E+02
 2.00000E-01    4.84995E+02
 2.25000E-01    4.82543E+02
 2.47377E-01    4.80748E+02
 2.50000E-01    4.78859E+02
 2.56323E-01    4.77922E+02
 2.75000E-01    4.66581E+02
 3.00000E-01    4.62027E+02
 3.02646E-01    4.61647E+02
 3.09384E-01    4.59919E+02
 3.59494E-01    4.27335E+02
 3.94033E-01    4.17047E+02
 4.00000E-01    4.08485E+02
 4.45910E-01    3.95681E+02
 4.90259E-01    3.89617E+02
 5.00000E-01    3.88049E+02
 5.04268E-01    3.87439E+02
 6.00000E-01    3.72153E+02
 7.00000E-01    3.58634E+02
 8.00000E-01    3.30406E+02
 9.00000E-01    3.03438E+02
 1.00000E+00    2.80020E+02
 1.10000E+00    2.59415E+02
 1.20000E+00    2.39698E+02
 1.30000E+00    2.22684E+02
 1.40000E+00    2.08420E+02
 1.50000E+00    1.96649E+02
 1.60000E+00    1.87116E+02
 1.70000E+00    1.79585E+02
 1.80000E+00    1.73828E+02
 1.90000E+00    1.69577E+02
 2.00000E+00    1.66571E+02
 2.25000E+00    1.62468E+02
 2.50000E+00    1.62660E+02
 2.75000E+00    1.63618E+02
 3.00000E+00    1.65242E+02
 3.50000E+00    1.68303E+02
 4.00000E+00    1.69799E+02
 4.50000E+00    1.69385E+02
 5.00000E+00    1.68479E+02
 5.50000E+00    1.68248E+02
 6.00000E+00    1.68901E+02
 6.50000E+00    1.70063E+02
 7.00000E+00    1.71130E+02
 7.50000E+00    1.71654E+02
 8.00000E+00    1.71516E+02
 8.50000E+00    1.70701E+02
 9.00000E+00    1.69402E+02
 9.50000E+00    1.67775E+02
 1.00000E+01    1.66032E+02
 1.05000E+01    1.64342E+02
 1.10000E+01    1.62842E+02
 1.15000E+01    1.61617E+02
 1.20000E+01    1.60683E+02
 1.25000E+01    1.59989E+02
 1.30000E+01    1.59446E+02
 1.35000E+01    1.58964E+02
 1.40000E+01    1.58477E+02
 1.45000E+01    1.57958E+02
 1.50000E+01    1.57412E+02
 1.55000E+01    1.56871E+02
 1.60000E+01    1.56378E+02
 1.65000E+01    1.55984E+02
 1.70000E+01    1.55726E+02
 1.75000E+01    1.55620E+02
 1.80000E+01    1.55651E+02
 1.85000E+01    1.55779E+02
 1.90000E+01    1.55946E+02
 1.95000E+01    1.56099E+02
 2.00000E+01    1.56201E+02
