# n + Eu155 : (n,xa)    
# jendl4.0   N.Iwamoto                         EVAL-Nov09
# 
# # energies =    86
#   E(MeV)        xs(mb) 
 7.91500E-02    6.06520E-11
 8.00000E-02    5.88310E-11
 9.00000E-02    5.54260E-11
 1.00000E-01    5.35700E-11
 1.02507E-01    5.32734E-11
 1.05013E-01    5.29770E-11
 1.10000E-01    4.82260E-11
 1.20000E-01    4.61370E-11
 1.30000E-01    4.50130E-11
 1.40000E-01    4.43600E-11
 1.50000E-01    4.40340E-11
 1.60000E-01    4.40400E-11
 1.70000E-01    5.55960E-11
 1.70109E-01    5.55990E-11
 1.80000E-01    5.27120E-11
 1.80323E-01    5.26542E-11
 1.90000E-01    5.09220E-11
 2.00000E-01    5.05070E-11
 2.25000E-01    5.07740E-11
 2.47377E-01    5.20360E-11
 2.50000E-01    5.08921E-11
 2.56323E-01    5.02460E-11
 2.75000E-01    6.23020E-11
 3.00000E-01    6.31500E-11
 3.02646E-01    6.33140E-11
 3.09384E-01    6.34764E-11
 3.59494E-01    6.46840E-11
 3.94033E-01    8.54200E-11
 4.00000E-01    8.54904E-11
 4.45910E-01    9.40930E-11
 4.90259E-01    1.32200E-10
 5.00000E-01    1.35336E-10
 5.04268E-01    1.36710E-10
 6.00000E-01    2.21770E-10
 7.00000E-01    3.59032E-10
 8.00000E-01    5.55730E-10
 9.00000E-01    8.47400E-10
 1.00000E+00    1.28050E-09
 1.10000E+00    1.93040E-09
 1.20000E+00    2.89190E-09
 1.30000E+00    4.30130E-09
 1.40000E+00    6.35320E-09
 1.50000E+00    9.30770E-09
 1.60000E+00    1.35130E-08
 1.70000E+00    1.94370E-08
 1.80000E+00    2.77080E-08
 1.90000E+00    3.91470E-08
 2.00000E+00    5.48220E-08
 2.25000E+00    1.08640E-07
 2.50000E+00    2.59860E-07
 2.75000E+00    4.73670E-07
 3.00000E+00    1.10797E-06
 3.50000E+00    3.52993E-06
 4.00000E+00    9.66129E-06
 4.50000E+00    2.32982E-05
 5.00000E+00    5.06862E-05
 5.50000E+00    9.52533E-05
 6.00000E+00    1.81989E-04
 6.50000E+00    3.24656E-04
 7.00000E+00    5.69948E-04
 7.50000E+00    9.87446E-04
 8.00000E+00    1.70852E-03
 8.50000E+00    2.95011E-03
 9.00000E+00    5.07318E-03
 9.50000E+00    8.64675E-03
 1.00000E+01    1.45310E-02
 1.05000E+01    2.38953E-02
 1.10000E+01    3.82995E-02
 1.15000E+01    5.95365E-02
 1.20000E+01    8.94620E-02
 1.25000E+01    1.29744E-01
 1.30000E+01    1.81625E-01
 1.35000E+01    2.45789E-01
 1.40000E+01    3.22333E-01
 1.45000E+01    4.10845E-01
 1.50000E+01    5.10548E-01
 1.55000E+01    6.20412E-01
 1.60000E+01    7.39314E-01
 1.65000E+01    8.66060E-01
 1.70000E+01    9.99541E-01
 1.75000E+01    1.13892E+00
 1.80000E+01    1.28231E+00
 1.85000E+01    1.42948E+00
 1.90000E+01    1.57900E+00
 1.95000E+01    1.73050E+00
 2.00000E+01    1.88305E+00
