# n + Eu155 : (n,n')    
# jendl4.0   N.Iwamoto                         EVAL-Nov09
# uncertainties: n
# # energies =    86
#   E(MeV)       xs(mb) 
 7.91500E-02    0.00000E+00
 8.00000E-02    1.25728E+02
 9.00000E-02    3.06301E+02
 1.00000E-01    3.78039E+02
 1.02507E-01    3.91872E+02
 1.05013E-01    4.05711E+02
 1.10000E-01    6.09856E+02
 1.20000E-01    7.20122E+02
 1.30000E-01    7.93517E+02
 1.40000E-01    8.51175E+02
 1.50000E-01    8.97078E+02
 1.60000E-01    9.36001E+02
 1.70000E-01    9.71910E+02
 1.70109E-01    9.72262E+02
 1.80000E-01    1.10473E+03
 1.80323E-01    1.10673E+03
 1.90000E-01    1.18079E+03
 2.00000E-01    1.23020E+03
 2.25000E-01    1.32099E+03
 2.47377E-01    1.37896E+03
 2.50000E-01    1.41932E+03
 2.56323E-01    1.45552E+03
 2.75000E-01    1.54814E+03
 3.00000E-01    1.62045E+03
 3.02646E-01    1.62690E+03
 3.09384E-01    1.64681E+03
 3.59494E-01    1.82392E+03
 3.94033E-01    1.87207E+03
 4.00000E-01    1.89350E+03
 4.45910E-01    1.98055E+03
 4.90259E-01    2.03558E+03
 5.00000E-01    2.04545E+03
 5.04268E-01    2.04945E+03
 6.00000E-01    2.12057E+03
 7.00000E-01    2.22440E+03
 8.00000E-01    2.34738E+03
 9.00000E-01    2.44915E+03
 1.00000E+00    2.53029E+03
 1.10000E+00    2.60613E+03
 1.20000E+00    2.66785E+03
 1.30000E+00    2.71784E+03
 1.40000E+00    2.75807E+03
 1.50000E+00    2.79071E+03
 1.60000E+00    2.81744E+03
 1.70000E+00    2.83961E+03
 1.80000E+00    2.85818E+03
 1.90000E+00    2.87403E+03
 2.00000E+00    2.88789E+03
 2.25000E+00    2.91832E+03
 2.50000E+00    2.94261E+03
 2.75000E+00    2.96454E+03
 3.00000E+00    2.98079E+03
 3.50000E+00    2.98689E+03
 4.00000E+00    2.96089E+03
 4.50000E+00    2.91583E+03
 5.00000E+00    2.87116E+03
 5.50000E+00    2.83355E+03
 6.00000E+00    2.80247E+03
 6.50000E+00    2.77302E+03
 7.00000E+00    2.74210E+03
 7.50000E+00    2.70860E+03
 8.00000E+00    2.67365E+03
 8.50000E+00    2.59016E+03
 9.00000E+00    2.16817E+03
 9.50000E+00    1.69011E+03
 1.00000E+01    1.30878E+03
 1.05000E+01    1.05547E+03
 1.10000E+01    8.75909E+02
 1.15000E+01    7.57112E+02
 1.20000E+01    6.77200E+02
 1.25000E+01    6.22262E+02
 1.30000E+01    5.83147E+02
 1.35000E+01    5.54025E+02
 1.40000E+01    5.31286E+02
 1.45000E+01    5.12677E+02
 1.50000E+01    4.96938E+02
 1.55000E+01    4.82853E+02
 1.60000E+01    4.71672E+02
 1.65000E+01    4.60258E+02
 1.70000E+01    4.51116E+02
 1.75000E+01    4.42684E+02
 1.80000E+01    4.34899E+02
 1.85000E+01    4.27602E+02
 1.90000E+01    4.20441E+02
 1.95000E+01    4.13672E+02
 2.00000E+01    4.07636E+02
