# n + Sn115 : (n,d)     
# jendl.ad   N.Iwamoto                         EVAL-Apr14
# uncertainties: n
# # energies =    63
#   E(MeV)       xs(mb) 
 6.58553E+00    0.00000E+00
 6.77747E+00    3.05180E-14
 6.80853E+00    3.74990E-14
 6.87579E+00    5.26170E-14
 7.08705E+00    1.00100E-13
 7.09189E+00    1.01190E-13
 7.12654E+00    1.08980E-13
 7.16500E+00    1.17620E-13
 7.19116E+00    1.23500E-13
 7.21908E+00    1.29780E-13
 7.23291E+00    1.32890E-13
 7.27910E+00    1.43270E-13
 7.28455E+00    1.44490E-13
 7.28803E+00    1.45280E-13
 7.31700E+00    1.51790E-13
 7.32046E+00    1.52570E-13
 7.36768E+00    1.63180E-13
 7.41777E+00    1.74440E-13
 7.42853E+00    1.76860E-13
 7.49961E+00    1.92830E-13
 7.50302E+00    1.93600E-13
 7.56463E+00    2.07450E-13
 7.59747E+00    2.14830E-13
 7.60078E+00    2.15570E-13
 7.61315E+00    2.18350E-13
 7.61424E+00    2.18600E-13
 7.62664E+00    2.21390E-13
 7.63182E+00    2.22550E-13
 7.63962E+00    2.24300E-13
 7.64194E+00    2.24830E-13
 7.65432E+00    2.27610E-13
 7.65739E+00    2.28300E-13
 7.66351E+00    2.29670E-13
 7.66899E+00    2.30910E-13
 7.67774E+00    2.32870E-13
 7.69025E+00    2.35680E-13
 7.70709E+00    2.39470E-13
 7.73463E+00    2.45660E-13
 8.00000E+00    3.05310E-13
 8.50000E+00    6.60840E-10
 9.00000E+00    1.27180E-07
 9.50000E+00    5.58586E-06
 1.00000E+01    1.07094E-04
 1.05000E+01    7.86523E-04
 1.10000E+01    4.54831E-03
 1.15000E+01    1.87047E-02
 1.20000E+01    5.90407E-02
 1.25000E+01    1.35028E-01
 1.30000E+01    2.94245E-01
 1.35000E+01    5.53488E-01
 1.40000E+01    9.25142E-01
 1.45000E+01    1.40864E+00
 1.50000E+01    1.99653E+00
 1.55000E+01    2.67252E+00
 1.60000E+01    3.42633E+00
 1.65000E+01    4.23730E+00
 1.70000E+01    5.10049E+00
 1.75000E+01    5.99549E+00
 1.80000E+01    6.92281E+00
 1.85000E+01    7.86224E+00
 1.90000E+01    8.81443E+00
 1.95000E+01    9.75531E+00
 2.00000E+01    1.06806E+01
