# n + Sn115 : (n,t)     
# jendl.ad   N.Iwamoto                         EVAL-Apr14
# uncertainties: n
# # energies =    60
#   E(MeV)       xs(mb) 
 7.61108E+00    0.00000E+00
 8.00622E+00    1.95890E-16
 8.26359E+00    6.30090E-16
 8.64431E+00    1.27240E-15
 8.64975E+00    1.28160E-15
 8.68430E+00    1.33990E-15
 8.72721E+00    1.41230E-15
 8.75246E+00    1.45490E-15
 8.79444E+00    1.52570E-15
 8.81264E+00    1.55640E-15
 8.96778E+00    1.81810E-15
 8.97395E+00    1.82850E-15
 9.00000E+00    1.87250E-15
 9.00396E+00    2.79190E-14
 9.07683E+00    5.07210E-13
 9.09587E+00    6.32440E-13
 9.12059E+00    7.95030E-13
 9.12828E+00    8.45610E-13
 9.13333E+00    8.78820E-13
 9.16048E+00    1.05740E-12
 9.17670E+00    1.16410E-12
 9.19188E+00    1.26390E-12
 9.19440E+00    1.28050E-12
 9.24417E+00    1.60790E-12
 9.25595E+00    1.68530E-12
 9.25942E+00    1.70820E-12
 9.30126E+00    1.98340E-12
 9.30998E+00    2.04070E-12
 9.31551E+00    2.07710E-12
 9.32600E+00    2.14610E-12
 9.33342E+00    2.19490E-12
 9.38451E+00    2.53090E-12
 9.38680E+00    2.54600E-12
 9.39464E+00    2.59750E-12
 9.42920E+00    2.82490E-12
 9.44961E+00    2.95910E-12
 9.46290E+00    3.04650E-12
 9.49278E+00    3.24300E-12
 9.50000E+00    3.29050E-12
 1.00000E+01    5.74340E-10
 1.05000E+01    1.72690E-08
 1.10000E+01    1.84060E-07
 1.15000E+01    1.06203E-06
 1.20000E+01    4.80799E-06
 1.25000E+01    2.32176E-05
 1.30000E+01    1.15439E-04
 1.35000E+01    5.01244E-04
 1.40000E+01    1.78804E-03
 1.45000E+01    5.25737E-03
 1.50000E+01    1.28409E-02
 1.55000E+01    2.73580E-02
 1.60000E+01    5.12699E-02
 1.65000E+01    8.64969E-02
 1.70000E+01    1.34114E-01
 1.75000E+01    1.94336E-01
 1.80000E+01    2.66762E-01
 1.85000E+01    3.50480E-01
 1.90000E+01    4.44382E-01
 1.95000E+01    5.47142E-01
 2.00000E+01    6.57530E-01
