# n + Os189 : (n,n'10)  
# jendl4.0   N.Iwamoto                         EVAL-Jan10
# uncertainties: n
# # energies =    81
#   E(MeV)       xs(mb) 
 2.89537E-01    0.00000E+00
 3.00000E-01    1.91700E-03
 3.51868E-01    4.77615E-02
 3.67718E-01    7.85217E-02
 4.00000E-01    1.74901E-01
 4.30214E-01    3.09517E-01
 4.41065E-01    3.70031E-01
 4.46592E-01    4.03495E-01
 5.00000E-01    7.57855E-01
 5.01453E-01    7.70586E-01
 5.08547E-01    8.34766E-01
 5.34377E-01    1.09893E+00
 5.52967E-01    1.30234E+00
 5.60328E-01    1.38612E+00
 5.65694E-01    1.44918E+00
 5.98076E-01    1.84517E+00
 6.00000E-01    1.86157E+00
 6.02835E-01    1.89528E+00
 6.25330E-01    2.19908E+00
 6.33966E-01    2.32459E+00
 6.37585E-01    2.37269E+00
 6.70963E-01    2.87124E+00
 6.75718E-01    2.94732E+00
 6.76693E-01    2.96222E+00
 6.83524E-01    3.07009E+00
 6.92095E-01    3.19800E+00
 7.00000E-01    3.30789E+00
 7.20727E-01    3.60709E+00
 7.20817E-01    3.60814E+00
 7.39426E-01    3.88264E+00
 8.00000E-01    4.87028E+00
 9.00000E-01    6.32769E+00
 1.00000E+00    6.98833E+00
 1.10000E+00    7.31149E+00
 1.20000E+00    7.43446E+00
 1.30000E+00    7.40757E+00
 1.40000E+00    7.14944E+00
 1.50000E+00    6.80136E+00
 1.60000E+00    6.40389E+00
 1.70000E+00    5.98115E+00
 1.80000E+00    5.54528E+00
 1.90000E+00    5.10794E+00
 2.00000E+00    4.67976E+00
 2.25000E+00    3.63070E+00
 2.50000E+00    2.83654E+00
 2.75000E+00    2.15841E+00
 3.00000E+00    1.73434E+00
 3.50000E+00    9.84044E-01
 4.00000E+00    5.62397E-01
 4.50000E+00    3.38603E-01
 5.00000E+00    2.24220E-01
 5.50000E+00    1.65633E-01
 6.00000E+00    1.34377E-01
 6.50000E+00    1.16185E-01
 7.00000E+00    1.04548E-01
 7.50000E+00    9.63575E-02
 8.00000E+00    9.02194E-02
 8.50000E+00    8.53173E-02
 9.00000E+00    8.11202E-02
 9.50000E+00    7.72636E-02
 1.00000E+01    7.35623E-02
 1.05000E+01    6.99327E-02
 1.10000E+01    6.64048E-02
 1.15000E+01    6.30068E-02
 1.20000E+01    5.97780E-02
 1.25000E+01    5.67411E-02
 1.30000E+01    5.39191E-02
 1.35000E+01    5.13093E-02
 1.40000E+01    4.89086E-02
 1.45000E+01    4.67004E-02
 1.50000E+01    4.46629E-02
 1.55000E+01    4.27714E-02
 1.60000E+01    4.10032E-02
 1.65000E+01    3.93374E-02
 1.70000E+01    3.77579E-02
 1.75000E+01    3.62540E-02
 1.80000E+01    3.48195E-02
 1.85000E+01    3.34526E-02
 1.90000E+01    3.21577E-02
 1.95000E+01    3.09407E-02
 2.00000E+01    2.97955E-02
