# n + Os189 : (n,n'06)  
# jendl4.0   N.Iwamoto                         EVAL-Jan10
# uncertainties: n
# # energies =    88
#   E(MeV)       xs(mb) 
 2.17818E-01    0.00000E+00
 2.20560E-01    4.63079E+01
 2.25000E-01    5.67297E+01
 2.34812E-01    7.46009E+01
 2.50000E-01    8.94192E+01
 2.75000E-01    1.14011E+02
 2.77389E-01    1.16240E+02
 2.89537E-01    1.22549E+02
 3.00000E-01    1.30328E+02
 3.51868E-01    1.67602E+02
 3.67718E-01    1.74489E+02
 4.00000E-01    1.87809E+02
 4.30214E-01    2.00250E+02
 4.41065E-01    2.01902E+02
 4.46592E-01    2.02866E+02
 5.00000E-01    2.14055E+02
 5.01453E-01    2.14446E+02
 5.08547E-01    2.15471E+02
 5.34377E-01    2.20342E+02
 5.52967E-01    2.22131E+02
 5.60328E-01    2.22860E+02
 5.65694E-01    2.23200E+02
 5.98076E-01    2.25949E+02
 6.00000E-01    2.26261E+02
 6.02835E-01    2.26737E+02
 6.25330E-01    2.29225E+02
 6.33966E-01    2.28866E+02
 6.37585E-01    2.27851E+02
 6.70963E-01    2.24254E+02
 6.75718E-01    2.23999E+02
 6.76693E-01    2.23518E+02
 6.83524E-01    2.21671E+02
 6.92095E-01    2.20407E+02
 7.00000E-01    2.19676E+02
 7.20727E-01    2.18934E+02
 7.20817E-01    2.18821E+02
 7.39426E-01    2.16343E+02
 8.00000E-01    2.15156E+02
 9.00000E-01    2.11207E+02
 1.00000E+00    2.04768E+02
 1.10000E+00    1.96957E+02
 1.20000E+00    1.90272E+02
 1.30000E+00    1.83388E+02
 1.40000E+00    1.77017E+02
 1.50000E+00    1.71079E+02
 1.60000E+00    1.65563E+02
 1.70000E+00    1.60425E+02
 1.80000E+00    1.55603E+02
 1.90000E+00    1.51045E+02
 2.00000E+00    1.46744E+02
 2.25000E+00    1.36840E+02
 2.50000E+00    1.29055E+02
 2.75000E+00    1.22780E+02
 3.00000E+00    1.18095E+02
 3.50000E+00    1.12299E+02
 4.00000E+00    1.09117E+02
 4.50000E+00    1.06453E+02
 5.00000E+00    1.03388E+02
 5.50000E+00    9.96065E+01
 6.00000E+00    9.52067E+01
 6.50000E+00    9.03566E+01
 7.00000E+00    8.54553E+01
 7.50000E+00    8.09161E+01
 8.00000E+00    7.69622E+01
 8.50000E+00    7.37043E+01
 9.00000E+00    7.10009E+01
 9.50000E+00    6.87203E+01
 1.00000E+01    6.66607E+01
 1.05000E+01    6.46995E+01
 1.10000E+01    6.27506E+01
 1.15000E+01    6.07832E+01
 1.20000E+01    5.88027E+01
 1.25000E+01    5.68347E+01
 1.30000E+01    5.49111E+01
 1.35000E+01    5.30598E+01
 1.40000E+01    5.13011E+01
 1.45000E+01    4.96457E+01
 1.50000E+01    4.80962E+01
 1.55000E+01    4.66490E+01
 1.60000E+01    4.52955E+01
 1.65000E+01    4.40249E+01
 1.70000E+01    4.28248E+01
 1.75000E+01    4.16844E+01
 1.80000E+01    4.05951E+01
 1.85000E+01    3.95513E+01
 1.90000E+01    3.85507E+01
 1.95000E+01    3.75931E+01
 2.00000E+01    3.66800E+01
