# n + Os189 : (n,g)     
# jendl4.0   N.Iwamoto                         EVAL-Jan10
# uncertainties: n
# # energies =    69
#   E(MeV)       xs(mb) 
 1.00000E-10    1.73903E+05
 5.00000E-09    4.73962E+04
 1.00000E-08    3.59224E+04
 1.50000E-08    3.02037E+04
 2.00000E-08    2.65929E+04
 2.50000E-08    2.40433E+04
 3.00000E-08    2.21176E+04
 3.50000E-08    2.03528E+04
 4.20000E-08    1.86364E+04
 5.00000E-08    1.72108E+04
 5.80000E-08    1.60163E+04
 6.70000E-08    1.48043E+04
 8.00000E-08    1.34286E+04
 1.00000E-07    1.17338E+04
 1.40000E-07    1.01866E+04
 1.80000E-07    9.15183E+03
 2.20000E-07    8.47401E+03
 2.50000E-07    8.01496E+03
 2.80000E-07    7.68719E+03
 3.00000E-07    7.45810E+03
 3.20000E-07    7.20471E+03
 3.50000E-07    6.85714E+03
 4.00000E-07    6.34819E+03
 5.00000E-07    5.78300E+03
 6.25000E-07    5.29785E+03
 7.80000E-07    5.00349E+03
 8.50000E-07    4.87042E+03
 9.10000E-07    4.77991E+03
 9.50000E-07    4.72852E+03
 9.72000E-07    4.69276E+03
 9.96000E-07    4.65705E+03
 1.02000E-06    4.62256E+03
 1.04500E-06    4.58880E+03
 1.07100E-06    4.55556E+03
 1.09700E-06    4.52454E+03
 1.12300E-06    4.49371E+03
 1.15000E-06    4.40683E+03
 1.30000E-06    4.27089E+03
 1.50000E-06    4.12058E+03
 2.10000E-06    4.11877E+03
 2.60000E-06    4.38346E+03
 3.30000E-06    5.09182E+03
 4.00000E-06    4.51198E+05
 9.87700E-06    1.56255E+05
 1.59680E-05    1.43057E+05
 2.77000E-05    5.90154E+04
 4.80520E-05    1.52472E+05
 7.55014E-05    8.15262E+04
 1.48728E-04    4.46769E+04
 3.67262E-04    2.20641E+04
 9.06898E-04    1.25441E+04
 1.42510E-03    8.67179E+03
 2.23945E-03    5.99448E+03
 3.51910E-03    4.15728E+03
 5.53000E-03    2.86785E+03
 9.11800E-03    1.99170E+03
 1.50300E-02    1.42835E+03
 2.47800E-02    1.05661E+03
 4.08500E-02    7.64772E+02
 6.73400E-02    4.98114E+02
 1.11000E-01    3.06391E+02
 1.83000E-01    2.04485E+02
 3.02000E-01    1.22984E+02
 5.00000E-01    7.47665E+01
 8.21000E-01    4.98909E+01
 1.35300E+00    3.40941E+01
 2.23100E+00    1.85465E+01
 3.67900E+00    5.80513E+00
 6.06500E+00    1.25600E+00
