# n + Dy161 : (n,n'15)  
# jendl4.0   N.Iwamoto,S.Chiba                 EVAL-Nov09
# uncertainties: n
# # energies =    78
#   E(MeV)       xs(mb) 
 4.20855E-01    0.00000E+00
 4.46179E-01    3.85762E+01
 4.54262E-01    4.38895E+01
 4.60096E-01    4.67549E+01
 4.88603E-01    6.03042E+01
 5.00000E-01    6.48764E+01
 5.11285E-01    6.90296E+01
 5.15209E-01    7.04193E+01
 5.24266E-01    7.34406E+01
 5.37548E-01    7.67389E+01
 5.53702E-01    7.98815E+01
 5.71502E-01    8.19764E+01
 5.90780E-01    8.46118E+01
 6.00000E-01    8.58183E+01
 6.11389E-01    8.73288E+01
 6.13653E-01    8.73705E+01
 6.32172E-01    8.77629E+01
 6.37136E-01    8.79512E+01
 6.46024E-01    8.76575E+01
 6.82575E-01    8.84905E+01
 6.92614E-01    8.81400E+01
 7.00000E-01    8.81715E+01
 7.00441E-01    8.81766E+01
 7.03522E-01    8.80952E+01
 7.21544E-01    8.74106E+01
 7.23104E-01    8.73475E+01
 7.35494E-01    8.69677E+01
 8.00000E-01    8.49237E+01
 9.00000E-01    8.06480E+01
 1.00000E+00    7.32179E+01
 1.10000E+00    6.50605E+01
 1.20000E+00    5.70917E+01
 1.30000E+00    4.96280E+01
 1.40000E+00    4.29224E+01
 1.50000E+00    3.68927E+01
 1.60000E+00    3.17836E+01
 1.70000E+00    2.72320E+01
 1.80000E+00    2.33712E+01
 1.90000E+00    2.01353E+01
 2.00000E+00    1.72266E+01
 2.25000E+00    1.15243E+01
 2.50000E+00    8.07453E+00
 2.75000E+00    5.45649E+00
 3.00000E+00    3.83879E+00
 3.50000E+00    1.83312E+00
 4.00000E+00    8.92116E-01
 4.50000E+00    4.52070E-01
 5.00000E+00    2.47293E-01
 5.50000E+00    1.51699E-01
 6.00000E+00    1.06108E-01
 6.50000E+00    8.32142E-02
 7.00000E+00    7.07403E-02
 7.50000E+00    6.30926E-02
 8.00000E+00    5.77216E-02
 8.50000E+00    5.35014E-02
 9.00000E+00    4.99354E-02
 9.50000E+00    4.67922E-02
 1.00000E+01    4.39723E-02
 1.05000E+01    4.14357E-02
 1.10000E+01    3.90851E-02
 1.15000E+01    3.69643E-02
 1.20000E+01    3.49890E-02
 1.25000E+01    3.31889E-02
 1.30000E+01    3.15086E-02
 1.35000E+01    2.99698E-02
 1.40000E+01    2.85306E-02
 1.45000E+01    2.72060E-02
 1.50000E+01    2.59669E-02
 1.55000E+01    2.48316E-02
 1.60000E+01    2.37619E-02
 1.65000E+01    2.27623E-02
 1.70000E+01    2.18265E-02
 1.75000E+01    2.09441E-02
 1.80000E+01    2.01170E-02
 1.85000E+01    1.93310E-02
 1.90000E+01    1.85941E-02
 1.95000E+01    1.78873E-02
 2.00000E+01    1.72236E-02
