# n + Dy161 : (n,n'13)  
# jendl4.0   N.Iwamoto,S.Chiba                 EVAL-Nov09
# uncertainties: n
# # energies =    81
#   E(MeV)       xs(mb) 
 3.69275E-01    0.00000E+00
 4.00000E-01    1.91308E+01
 4.09541E-01    2.18480E+01
 4.20855E-01    2.48361E+01
 4.46179E-01    2.90619E+01
 4.54262E-01    3.05064E+01
 4.60096E-01    3.15017E+01
 4.88603E-01    3.58796E+01
 5.00000E-01    3.74580E+01
 5.11285E-01    3.88256E+01
 5.15209E-01    3.92885E+01
 5.24266E-01    4.03368E+01
 5.37548E-01    4.09923E+01
 5.53702E-01    4.22591E+01
 5.71502E-01    4.25955E+01
 5.90780E-01    4.32589E+01
 6.00000E-01    4.36091E+01
 6.11389E-01    4.40867E+01
 6.13653E-01    4.38819E+01
 6.32172E-01    4.37874E+01
 6.37136E-01    4.38840E+01
 6.46024E-01    4.38250E+01
 6.82575E-01    4.43814E+01
 6.92614E-01    4.39898E+01
 7.00000E-01    4.39444E+01
 7.00441E-01    4.39436E+01
 7.03522E-01    4.39382E+01
 7.21544E-01    4.33899E+01
 7.23104E-01    4.33771E+01
 7.35494E-01    4.33312E+01
 8.00000E-01    4.30213E+01
 9.00000E-01    4.16900E+01
 1.00000E+00    3.84628E+01
 1.10000E+00    3.46051E+01
 1.20000E+00    3.06749E+01
 1.30000E+00    2.68518E+01
 1.40000E+00    2.33349E+01
 1.50000E+00    2.01824E+01
 1.60000E+00    1.74260E+01
 1.70000E+00    1.49664E+01
 1.80000E+00    1.29038E+01
 1.90000E+00    1.11124E+01
 2.00000E+00    9.50718E+00
 2.25000E+00    6.39182E+00
 2.50000E+00    4.46682E+00
 2.75000E+00    3.02262E+00
 3.00000E+00    2.28405E+00
 3.50000E+00    1.16839E+00
 4.00000E+00    6.42060E-01
 4.50000E+00    3.91395E-01
 5.00000E+00    2.69656E-01
 5.50000E+00    2.07933E-01
 6.00000E+00    1.74094E-01
 6.50000E+00    1.53367E-01
 7.00000E+00    1.39074E-01
 7.50000E+00    1.28114E-01
 8.00000E+00    1.19019E-01
 8.50000E+00    1.11102E-01
 9.00000E+00    1.04030E-01
 9.50000E+00    9.76179E-02
 1.00000E+01    9.17858E-02
 1.05000E+01    8.65046E-02
 1.10000E+01    8.15940E-02
 1.15000E+01    7.71585E-02
 1.20000E+01    7.30235E-02
 1.25000E+01    6.92564E-02
 1.30000E+01    6.57388E-02
 1.35000E+01    6.25238E-02
 1.40000E+01    5.95177E-02
 1.45000E+01    5.67520E-02
 1.50000E+01    5.41642E-02
 1.55000E+01    5.17829E-02
 1.60000E+01    4.95565E-02
 1.65000E+01    4.74756E-02
 1.70000E+01    4.55277E-02
 1.75000E+01    4.36901E-02
 1.80000E+01    4.19670E-02
 1.85000E+01    4.03160E-02
 1.90000E+01    3.87691E-02
 1.95000E+01    3.72848E-02
 2.00000E+01    3.58921E-02
