# n + Dy161 : (n,d)     
# jendl4.0   N.Iwamoto,S.Chiba                 EVAL-Nov09
# uncertainties: n
# # energies =    51
#   E(MeV)       xs(mb) 
 5.31571E+00    0.00000E+00
 5.37979E+00    9.90130E-23
 5.38022E+00    9.98110E-23
 5.39507E+00    1.30530E-22
 5.39530E+00    1.31040E-22
 5.42195E+00    1.93480E-22
 5.44299E+00    2.46310E-22
 5.44977E+00    2.63830E-22
 5.45531E+00    2.78310E-22
 5.45606E+00    2.80280E-22
 5.47314E+00    3.25810E-22
 5.48451E+00    3.56490E-22
 5.48547E+00    3.59080E-22
 5.49365E+00    3.81280E-22
 5.51737E+00    4.45700E-22
 5.53973E+00    5.47660E-19
 5.54995E+00    9.19260E-19
 5.55417E+00    1.09350E-18
 5.56140E+00    1.42180E-18
 5.57486E+00    2.10930E-18
 5.58260E+00    2.53460E-18
 5.58621E+00    2.73930E-18
 5.59646E+00    3.33660E-18
 6.50000E+00    5.68170E-17
 7.00000E+00    1.70120E-15
 7.50000E+00    6.78980E-12
 8.00000E+00    2.03060E-09
 8.50000E+00    1.30020E-07
 9.00000E+00    2.47213E-06
 9.50000E+00    3.09687E-05
 1.00000E+01    2.34696E-04
 1.05000E+01    1.22815E-03
 1.10000E+01    4.84957E-03
 1.15000E+01    1.53577E-02
 1.20000E+01    4.06061E-02
 1.25000E+01    9.22857E-02
 1.30000E+01    1.84011E-01
 1.35000E+01    3.27980E-01
 1.40000E+01    5.09232E-01
 1.45000E+01    7.67628E-01
 1.50000E+01    1.08417E+00
 1.55000E+01    1.47254E+00
 1.60000E+01    1.86622E+00
 1.65000E+01    2.33388E+00
 1.70000E+01    2.83292E+00
 1.75000E+01    3.31489E+00
 1.80000E+01    3.83095E+00
 1.85000E+01    4.37485E+00
 1.90000E+01    4.94125E+00
 1.95000E+01    5.43826E+00
 2.00000E+01    5.88974E+00
