# n + Dy161 : (n,n'20)  
# jendl4.0   N.Iwamoto,S.Chiba                 EVAL-Nov09
# uncertainties: n
# # energies =    72
#   E(MeV)       xs(mb) 
 5.11285E-01    0.00000E+00
 5.15209E-01    3.34616E-05
 5.24266E-01    1.45069E-04
 5.37548E-01    4.17596E-04
 5.53702E-01    9.21195E-04
 5.71502E-01    1.72619E-03
 5.90780E-01    2.96374E-03
 6.00000E-01    3.70376E-03
 6.11389E-01    4.79513E-03
 6.13653E-01    5.03079E-03
 6.32172E-01    7.24625E-03
 6.37136E-01    7.92807E-03
 6.46024E-01    9.24198E-03
 6.82575E-01    1.60303E-02
 6.92614E-01    1.83780E-02
 7.00000E-01    2.02502E-02
 7.00441E-01    2.03737E-02
 7.03522E-01    2.12495E-02
 7.21544E-01    2.67704E-02
 7.23104E-01    2.72714E-02
 7.35494E-01    3.15188E-02
 8.00000E-01    6.11338E-02
 9.00000E-01    1.35861E-01
 1.00000E+00    2.44682E-01
 1.10000E+00    3.89991E-01
 1.20000E+00    5.51480E-01
 1.30000E+00    7.44290E-01
 1.40000E+00    9.32682E-01
 1.50000E+00    1.10761E+00
 1.60000E+00    1.29006E+00
 1.70000E+00    1.45868E+00
 1.80000E+00    1.59402E+00
 1.90000E+00    1.71332E+00
 2.00000E+00    1.82020E+00
 2.25000E+00    1.98282E+00
 2.50000E+00    2.15125E+00
 2.75000E+00    2.19365E+00
 3.00000E+00    2.34882E+00
 3.50000E+00    2.38423E+00
 4.00000E+00    2.40037E+00
 4.50000E+00    2.41153E+00
 5.00000E+00    2.41602E+00
 5.50000E+00    2.41357E+00
 6.00000E+00    2.40220E+00
 6.50000E+00    2.37288E+00
 7.00000E+00    2.31609E+00
 7.50000E+00    2.23001E+00
 8.00000E+00    2.12218E+00
 8.50000E+00    2.00440E+00
 9.00000E+00    1.88753E+00
 9.50000E+00    1.77852E+00
 1.00000E+01    1.68053E+00
 1.05000E+01    1.59889E+00
 1.10000E+01    1.51741E+00
 1.15000E+01    1.45317E+00
 1.20000E+01    1.38906E+00
 1.25000E+01    1.33615E+00
 1.30000E+01    1.28334E+00
 1.35000E+01    1.23668E+00
 1.40000E+01    1.19011E+00
 1.45000E+01    1.14646E+00
 1.50000E+01    1.10289E+00
 1.55000E+01    1.06124E+00
 1.60000E+01    1.01965E+00
 1.65000E+01    9.80108E-01
 1.70000E+01    9.40621E-01
 1.75000E+01    9.03276E-01
 1.80000E+01    8.65979E-01
 1.85000E+01    8.30913E-01
 1.90000E+01    7.95886E-01
 1.95000E+01    7.63457E-01
 2.00000E+01    7.31065E-01
