# n + Dy161 : (n,n'31)  
# jendl4.0   N.Iwamoto,S.Chiba                 EVAL-Nov09
# uncertainties: n
# # energies =    60
#   E(MeV)       xs(mb) 
 6.46024E-01    0.00000E+00
 6.82575E-01    3.39074E+00
 6.92614E-01    4.26206E+00
 7.00000E-01    4.86112E+00
 7.00441E-01    4.89736E+00
 7.03522E-01    5.14050E+00
 7.21544E-01    6.64015E+00
 7.23104E-01    6.75750E+00
 7.35494E-01    7.74591E+00
 8.00000E-01    1.25595E+01
 9.00000E-01    1.81140E+01
 1.00000E+00    2.11598E+01
 1.10000E+00    2.23770E+01
 1.20000E+00    2.25120E+01
 1.30000E+00    2.18004E+01
 1.40000E+00    2.07153E+01
 1.50000E+00    1.93981E+01
 1.60000E+00    1.78395E+01
 1.70000E+00    1.62429E+01
 1.80000E+00    1.47301E+01
 1.90000E+00    1.32633E+01
 2.00000E+00    1.18758E+01
 2.25000E+00    8.66108E+00
 2.50000E+00    6.47629E+00
 2.75000E+00    4.65389E+00
 3.00000E+00    3.52385E+00
 3.50000E+00    1.86549E+00
 4.00000E+00    1.00277E+00
 4.50000E+00    5.64333E-01
 5.00000E+00    3.44524E-01
 5.50000E+00    2.34134E-01
 6.00000E+00    1.77309E-01
 6.50000E+00    1.46342E-01
 7.00000E+00    1.27963E-01
 7.50000E+00    1.15765E-01
 8.00000E+00    1.06673E-01
 8.50000E+00    9.92605E-02
 9.00000E+00    9.28675E-02
 9.50000E+00    8.71648E-02
 1.00000E+01    8.20099E-02
 1.05000E+01    7.73533E-02
 1.10000E+01    7.30262E-02
 1.15000E+01    6.91151E-02
 1.20000E+01    6.54634E-02
 1.25000E+01    6.21334E-02
 1.30000E+01    5.90187E-02
 1.35000E+01    5.61694E-02
 1.40000E+01    5.35013E-02
 1.45000E+01    5.10446E-02
 1.50000E+01    4.87429E-02
 1.55000E+01    4.66314E-02
 1.60000E+01    4.46522E-02
 1.65000E+01    4.27902E-02
 1.70000E+01    4.10469E-02
 1.75000E+01    3.94031E-02
 1.80000E+01    3.78627E-02
 1.85000E+01    3.63982E-02
 1.90000E+01    3.50257E-02
 1.95000E+01    3.36980E-02
 2.00000E+01    3.24524E-02
