# n + Dy161 : (n,n'26)  
# jendl4.0   N.Iwamoto,S.Chiba                 EVAL-Nov09
# uncertainties: n
# # energies =    66
#   E(MeV)       xs(mb) 
 5.90780E-01    0.00000E+00
 6.00000E-01    4.78799E-01
 6.11389E-01    8.25820E-01
 6.13653E-01    8.94547E-01
 6.32172E-01    1.45316E+00
 6.37136E-01    1.60702E+00
 6.46024E-01    1.87939E+00
 6.82575E-01    2.93979E+00
 6.92614E-01    3.23136E+00
 7.00000E-01    3.40467E+00
 7.00441E-01    3.41600E+00
 7.03522E-01    3.49586E+00
 7.21544E-01    3.97253E+00
 7.23104E-01    4.00949E+00
 7.35494E-01    4.30907E+00
 8.00000E-01    5.84109E+00
 9.00000E-01    7.70300E+00
 1.00000E+00    8.88763E+00
 1.10000E+00    9.60063E+00
 1.20000E+00    9.99937E+00
 1.30000E+00    1.00867E+01
 1.40000E+00    9.98787E+00
 1.50000E+00    9.72761E+00
 1.60000E+00    9.26844E+00
 1.70000E+00    8.71325E+00
 1.80000E+00    8.16917E+00
 1.90000E+00    7.53496E+00
 2.00000E+00    6.94450E+00
 2.25000E+00    5.32312E+00
 2.50000E+00    4.17851E+00
 2.75000E+00    3.10027E+00
 3.00000E+00    2.45224E+00
 3.50000E+00    1.36546E+00
 4.00000E+00    7.62944E-01
 4.50000E+00    4.42105E-01
 5.00000E+00    2.75425E-01
 5.50000E+00    1.89297E-01
 6.00000E+00    1.43932E-01
 6.50000E+00    1.18795E-01
 7.00000E+00    1.03733E-01
 7.50000E+00    9.37083E-02
 8.00000E+00    8.62476E-02
 8.50000E+00    8.01847E-02
 9.00000E+00    7.49715E-02
 9.50000E+00    7.03352E-02
 1.00000E+01    6.61553E-02
 1.05000E+01    6.23840E-02
 1.10000E+01    5.88829E-02
 1.15000E+01    5.57192E-02
 1.20000E+01    5.27683E-02
 1.25000E+01    5.00769E-02
 1.30000E+01    4.75616E-02
 1.35000E+01    4.52602E-02
 1.40000E+01    4.31065E-02
 1.45000E+01    4.11229E-02
 1.50000E+01    3.92656E-02
 1.55000E+01    3.75534E-02
 1.60000E+01    3.59525E-02
 1.65000E+01    3.44563E-02
 1.70000E+01    3.30554E-02
 1.75000E+01    3.17319E-02
 1.80000E+01    3.04829E-02
 1.85000E+01    2.92961E-02
 1.90000E+01    2.81836E-02
 1.95000E+01    2.71167E-02
 2.00000E+01    2.61150E-02
