# n + Dy161 : (n,n'04)  
# jendl4.0   N.Iwamoto,S.Chiba                 EVAL-Nov09
# uncertainties: n
# # energies =   104
#   E(MeV)       xs(mb) 
 1.01032E-01    0.00000E+00
 1.03708E-01    7.12036E+00
 1.10000E-01    1.46168E+01
 1.20000E-01    2.69748E+01
 1.30000E-01    3.93561E+01
 1.32585E-01    4.24531E+01
 1.40000E-01    5.02394E+01
 1.50000E-01    6.11414E+01
 1.60000E-01    7.13232E+01
 1.70000E-01    8.11237E+01
 1.80000E-01    9.04162E+01
 1.85385E-01    9.51962E+01
 1.90000E-01    9.79148E+01
 2.00000E-01    1.05559E+02
 2.02347E-01    1.07260E+02
 2.14287E-01    1.11239E+02
 2.25000E-01    1.12248E+02
 2.50000E-01    1.21907E+02
 2.69116E-01    1.29535E+02
 2.75000E-01    1.31837E+02
 3.00000E-01    1.41540E+02
 3.16914E-01    1.46977E+02
 3.22700E-01    1.47194E+02
 3.69275E-01    1.57824E+02
 4.00000E-01    1.64939E+02
 4.09541E-01    1.66801E+02
 4.20855E-01    1.68977E+02
 4.46179E-01    1.73756E+02
 4.54262E-01    1.75133E+02
 4.60096E-01    1.75437E+02
 4.88603E-01    1.79159E+02
 5.00000E-01    1.80546E+02
 5.11285E-01    1.81754E+02
 5.15209E-01    1.82169E+02
 5.24266E-01    1.82156E+02
 5.37548E-01    1.83094E+02
 5.53702E-01    1.83580E+02
 5.71502E-01    1.84463E+02
 5.90780E-01    1.84004E+02
 6.00000E-01    1.84311E+02
 6.11389E-01    1.84633E+02
 6.13653E-01    1.84702E+02
 6.32172E-01    1.84714E+02
 6.37136E-01    1.84396E+02
 6.46024E-01    1.83902E+02
 6.82575E-01    1.83964E+02
 6.92614E-01    1.84020E+02
 7.00000E-01    1.83363E+02
 7.00441E-01    1.83350E+02
 7.03522E-01    1.82787E+02
 7.21544E-01    1.81678E+02
 7.23104E-01    1.81454E+02
 7.35494E-01    1.80875E+02
 8.00000E-01    1.79946E+02
 9.00000E-01    1.77747E+02
 1.00000E+00    1.72118E+02
 1.10000E+00    1.64850E+02
 1.20000E+00    1.57647E+02
 1.30000E+00    1.50110E+02
 1.40000E+00    1.43088E+02
 1.50000E+00    1.37721E+02
 1.60000E+00    1.31476E+02
 1.70000E+00    1.25923E+02
 1.80000E+00    1.21611E+02
 1.90000E+00    1.18295E+02
 2.00000E+00    1.15790E+02
 2.25000E+00    1.07697E+02
 2.50000E+00    1.02871E+02
 2.75000E+00    9.82497E+01
 3.00000E+00    9.48882E+01
 3.50000E+00    9.01123E+01
 4.00000E+00    8.68994E+01
 4.50000E+00    8.44968E+01
 5.00000E+00    8.27138E+01
 5.50000E+00    8.13786E+01
 6.00000E+00    8.02268E+01
 6.50000E+00    7.90175E+01
 7.00000E+00    7.76190E+01
 7.50000E+00    7.60072E+01
 8.00000E+00    7.42223E+01
 8.50000E+00    7.23278E+01
 9.00000E+00    7.03889E+01
 9.50000E+00    6.84624E+01
 1.00000E+01    6.65934E+01
 1.05000E+01    6.48651E+01
 1.10000E+01    6.31368E+01
 1.15000E+01    6.16283E+01
 1.20000E+01    6.01198E+01
 1.25000E+01    5.88141E+01
 1.30000E+01    5.75085E+01
 1.35000E+01    5.63641E+01
 1.40000E+01    5.52198E+01
 1.45000E+01    5.41988E+01
 1.50000E+01    5.31778E+01
 1.55000E+01    5.22521E+01
 1.60000E+01    5.13265E+01
 1.65000E+01    5.04768E+01
 1.70000E+01    4.96270E+01
 1.75000E+01    4.88406E+01
 1.80000E+01    4.80543E+01
 1.85000E+01    4.73263E+01
 1.90000E+01    4.65983E+01
 1.95000E+01    4.59288E+01
 2.00000E+01    4.52593E+01
