# n + Dy161 : (n,n'12)  
# jendl4.0   N.Iwamoto,S.Chiba                 EVAL-Nov09
# uncertainties: n
# # energies =    82
#   E(MeV)       xs(mb) 
 3.22700E-01    0.00000E+00
 3.69275E-01    5.46671E+00
 4.00000E-01    9.46759E+00
 4.09541E-01    1.07436E+01
 4.20855E-01    1.22944E+01
 4.46179E-01    1.57361E+01
 4.54262E-01    1.67129E+01
 4.60096E-01    1.74044E+01
 4.88603E-01    2.07226E+01
 5.00000E-01    2.19402E+01
 5.11285E-01    2.32272E+01
 5.15209E-01    2.36774E+01
 5.24266E-01    2.45975E+01
 5.37548E-01    2.58425E+01
 5.53702E-01    2.72935E+01
 5.71502E-01    2.88930E+01
 5.90780E-01    3.04382E+01
 6.00000E-01    3.11513E+01
 6.11389E-01    3.20722E+01
 6.13653E-01    3.22551E+01
 6.32172E-01    3.36410E+01
 6.37136E-01    3.38925E+01
 6.46024E-01    3.44126E+01
 6.82575E-01    3.63464E+01
 6.92614E-01    3.68828E+01
 7.00000E-01    3.69167E+01
 7.00441E-01    3.69305E+01
 7.03522E-01    3.69432E+01
 7.21544E-01    3.75605E+01
 7.23104E-01    3.75743E+01
 7.35494E-01    3.78813E+01
 8.00000E-01    3.98682E+01
 9.00000E-01    4.13621E+01
 1.00000E+00    4.04832E+01
 1.10000E+00    3.83675E+01
 1.20000E+00    3.57034E+01
 1.30000E+00    3.25803E+01
 1.40000E+00    2.94001E+01
 1.50000E+00    2.64830E+01
 1.60000E+00    2.34851E+01
 1.70000E+00    2.08211E+01
 1.80000E+00    1.85117E+01
 1.90000E+00    1.63065E+01
 2.00000E+00    1.43489E+01
 2.25000E+00    1.02144E+01
 2.50000E+00    7.47429E+00
 2.75000E+00    5.28515E+00
 3.00000E+00    3.86144E+00
 3.50000E+00    1.96601E+00
 4.00000E+00    1.00518E+00
 4.50000E+00    5.27432E-01
 5.00000E+00    2.93898E-01
 5.50000E+00    1.80328E-01
 6.00000E+00    1.24409E-01
 6.50000E+00    9.58115E-02
 7.00000E+00    8.02212E-02
 7.50000E+00    7.08198E-02
 8.00000E+00    6.43879E-02
 8.50000E+00    5.94600E-02
 9.00000E+00    5.53734E-02
 9.50000E+00    5.18153E-02
 1.00000E+01    4.86477E-02
 1.05000E+01    4.58116E-02
 1.10000E+01    4.31902E-02
 1.15000E+01    4.08312E-02
 1.20000E+01    3.86353E-02
 1.25000E+01    3.66378E-02
 1.30000E+01    3.47705E-02
 1.35000E+01    3.30633E-02
 1.40000E+01    3.14674E-02
 1.45000E+01    3.00002E-02
 1.50000E+01    2.86275E-02
 1.55000E+01    2.73717E-02
 1.60000E+01    2.61910E-02
 1.65000E+01    2.50837E-02
 1.70000E+01    2.40474E-02
 1.75000E+01    2.30698E-02
 1.80000E+01    2.21541E-02
 1.85000E+01    2.12833E-02
 1.90000E+01    2.04677E-02
 1.95000E+01    1.96845E-02
 2.00000E+01    1.89502E-02
