# n + Dy161 : (n,n'21)  
# jendl4.0   N.Iwamoto,S.Chiba                 EVAL-Nov09
# uncertainties: n
# # energies =    71
#   E(MeV)       xs(mb) 
 5.15209E-01    0.00000E+00
 5.24266E-01    9.38583E+00
 5.37548E-01    1.49185E+01
 5.53702E-01    2.01885E+01
 5.71502E-01    2.53195E+01
 5.90780E-01    2.98577E+01
 6.00000E-01    3.19335E+01
 6.11389E-01    3.44660E+01
 6.13653E-01    3.49620E+01
 6.32172E-01    3.85364E+01
 6.37136E-01    3.92421E+01
 6.46024E-01    4.06176E+01
 6.82575E-01    4.57656E+01
 6.92614E-01    4.71271E+01
 7.00000E-01    4.78378E+01
 7.00441E-01    4.78884E+01
 7.03522E-01    4.80696E+01
 7.21544E-01    4.97806E+01
 7.23104E-01    4.98022E+01
 7.35494E-01    5.06384E+01
 8.00000E-01    5.51130E+01
 9.00000E-01    5.84110E+01
 1.00000E+00    5.72705E+01
 1.10000E+00    5.39425E+01
 1.20000E+00    4.97026E+01
 1.30000E+00    4.49285E+01
 1.40000E+00    4.02500E+01
 1.50000E+00    3.57759E+01
 1.60000E+00    3.14195E+01
 1.70000E+00    2.76667E+01
 1.80000E+00    2.41612E+01
 1.90000E+00    2.11233E+01
 2.00000E+00    1.85258E+01
 2.25000E+00    1.27464E+01
 2.50000E+00    9.22727E+00
 2.75000E+00    6.37031E+00
 3.00000E+00    4.51671E+00
 3.50000E+00    2.20111E+00
 4.00000E+00    1.06637E+00
 4.50000E+00    5.17653E-01
 5.00000E+00    2.56695E-01
 5.50000E+00    1.34144E-01
 6.00000E+00    7.68102E-02
 6.50000E+00    4.96992E-02
 7.00000E+00    3.65789E-02
 7.50000E+00    2.98647E-02
 8.00000E+00    2.60467E-02
 8.50000E+00    2.35639E-02
 9.00000E+00    2.17320E-02
 9.50000E+00    2.02464E-02
 1.00000E+01    1.89739E-02
 1.05000E+01    1.78569E-02
 1.10000E+01    1.68355E-02
 1.15000E+01    1.59197E-02
 1.20000E+01    1.50698E-02
 1.25000E+01    1.42962E-02
 1.30000E+01    1.35748E-02
 1.35000E+01    1.29151E-02
 1.40000E+01    1.22984E-02
 1.45000E+01    1.17298E-02
 1.50000E+01    1.11977E-02
 1.55000E+01    1.07081E-02
 1.60000E+01    1.02490E-02
 1.65000E+01    9.82002E-03
 1.70000E+01    9.41838E-03
 1.75000E+01    9.03970E-03
 1.80000E+01    8.68467E-03
 1.85000E+01    8.34740E-03
 1.90000E+01    8.03039E-03
 1.95000E+01    7.72464E-03
 2.00000E+01    7.43734E-03
