# n + Dy161 : (n,n'17)  
# jendl4.0   N.Iwamoto,S.Chiba                 EVAL-Nov09
# uncertainties: n
# # energies =    76
#   E(MeV)       xs(mb) 
 4.54262E-01    0.00000E+00
 4.60096E-01    2.38481E+01
 4.88603E-01    5.44991E+01
 5.00000E-01    6.26391E+01
 5.11285E-01    6.97447E+01
 5.15209E-01    7.20211E+01
 5.24266E-01    7.70537E+01
 5.37548E-01    8.36826E+01
 5.53702E-01    8.92175E+01
 5.71502E-01    9.45050E+01
 5.90780E-01    9.89207E+01
 6.00000E-01    1.00830E+02
 6.11389E-01    1.03172E+02
 6.13653E-01    1.03561E+02
 6.32172E-01    1.05817E+02
 6.37136E-01    1.06526E+02
 6.46024E-01    1.07020E+02
 6.82575E-01    1.09471E+02
 6.92614E-01    1.09548E+02
 7.00000E-01    1.09690E+02
 7.00441E-01    1.09704E+02
 7.03522E-01    1.09532E+02
 7.21544E-01    1.09195E+02
 7.23104E-01    1.09193E+02
 7.35494E-01    1.09301E+02
 8.00000E-01    1.07428E+02
 9.00000E-01    1.02182E+02
 1.00000E+00    9.26403E+01
 1.10000E+00    8.21678E+01
 1.20000E+00    7.19784E+01
 1.30000E+00    6.24899E+01
 1.40000E+00    5.40128E+01
 1.50000E+00    4.64547E+01
 1.60000E+00    3.99149E+01
 1.70000E+00    3.42877E+01
 1.80000E+00    2.93846E+01
 1.90000E+00    2.52894E+01
 2.00000E+00    2.17219E+01
 2.25000E+00    1.45205E+01
 2.50000E+00    1.02129E+01
 2.75000E+00    6.90863E+00
 3.00000E+00    4.78967E+00
 3.50000E+00    2.25566E+00
 4.00000E+00    1.06203E+00
 4.50000E+00    5.03235E-01
 5.00000E+00    2.44616E-01
 5.50000E+00    1.26001E-01
 6.00000E+00    7.16431E-02
 6.50000E+00    4.63718E-02
 7.00000E+00    3.42914E-02
 7.50000E+00    2.81468E-02
 8.00000E+00    2.46447E-02
 8.50000E+00    2.23462E-02
 9.00000E+00    2.06331E-02
 9.50000E+00    1.92323E-02
 1.00000E+01    1.80261E-02
 1.05000E+01    1.69641E-02
 1.10000E+01    1.59915E-02
 1.15000E+01    1.51188E-02
 1.20000E+01    1.43087E-02
 1.25000E+01    1.35716E-02
 1.30000E+01    1.28842E-02
 1.35000E+01    1.22558E-02
 1.40000E+01    1.16685E-02
 1.45000E+01    1.11279E-02
 1.50000E+01    1.06222E-02
 1.55000E+01    1.01575E-02
 1.60000E+01    9.72313E-03
 1.65000E+01    9.31712E-03
 1.70000E+01    8.93472E-03
 1.75000E+01    8.57319E-03
 1.80000E+01    8.23426E-03
 1.85000E+01    7.91230E-03
 1.90000E+01    7.61034E-03
 1.95000E+01    7.32087E-03
 2.00000E+01    7.04898E-03
