# n + Dy161 : (n,n'29)  
# jendl4.0   N.Iwamoto,S.Chiba                 EVAL-Nov09
# uncertainties: n
# # energies =    62
#   E(MeV)       xs(mb) 
 6.32172E-01    0.00000E+00
 6.37136E-01    4.92119E+00
 6.46024E-01    8.27131E+00
 6.82575E-01    1.73689E+01
 6.92614E-01    1.94384E+01
 7.00000E-01    2.08383E+01
 7.00441E-01    2.09233E+01
 7.03522E-01    2.14585E+01
 7.21544E-01    2.45841E+01
 7.23104E-01    2.47691E+01
 7.35494E-01    2.66538E+01
 8.00000E-01    3.48473E+01
 9.00000E-01    4.26429E+01
 1.00000E+00    4.50864E+01
 1.10000E+00    4.44023E+01
 1.20000E+00    4.21596E+01
 1.30000E+00    3.89393E+01
 1.40000E+00    3.54980E+01
 1.50000E+00    3.20374E+01
 1.60000E+00    2.85641E+01
 1.70000E+00    2.52862E+01
 1.80000E+00    2.23817E+01
 1.90000E+00    1.96746E+01
 2.00000E+00    1.72659E+01
 2.25000E+00    1.20816E+01
 2.50000E+00    8.74277E+00
 2.75000E+00    6.11211E+00
 3.00000E+00    4.38104E+00
 3.50000E+00    2.17652E+00
 4.00000E+00    1.08464E+00
 4.50000E+00    5.51882E-01
 5.00000E+00    2.95495E-01
 5.50000E+00    1.72956E-01
 6.00000E+00    1.13996E-01
 6.50000E+00    8.47654E-02
 7.00000E+00    6.94708E-02
 7.50000E+00    6.06843E-02
 8.00000E+00    5.49409E-02
 8.50000E+00    5.06830E-02
 9.00000E+00    4.72174E-02
 9.50000E+00    4.42253E-02
 1.00000E+01    4.15680E-02
 1.05000E+01    3.91880E-02
 1.10000E+01    3.69866E-02
 1.15000E+01    3.50012E-02
 1.20000E+01    3.31477E-02
 1.25000E+01    3.14584E-02
 1.30000E+01    2.98793E-02
 1.35000E+01    2.84351E-02
 1.40000E+01    2.70831E-02
 1.45000E+01    2.58382E-02
 1.50000E+01    2.46722E-02
 1.55000E+01    2.36040E-02
 1.60000E+01    2.25968E-02
 1.65000E+01    2.16549E-02
 1.70000E+01    2.07731E-02
 1.75000E+01    1.99416E-02
 1.80000E+01    1.91624E-02
 1.85000E+01    1.84215E-02
 1.90000E+01    1.77226E-02
 1.95000E+01    1.70509E-02
 2.00000E+01    1.64207E-02
