# n + Dy161 : (n,n'07)  
# jendl4.0   N.Iwamoto,S.Chiba                 EVAL-Nov09
# uncertainties: n
# # energies =    93
#   E(MeV)       xs(mb) 
 1.85385E-01    0.00000E+00
 1.90000E-01    4.72725E+00
 2.00000E-01    8.45747E+00
 2.02347E-01    9.23534E+00
 2.14287E-01    1.25733E+01
 2.25000E-01    1.49614E+01
 2.50000E-01    2.03862E+01
 2.69116E-01    2.41322E+01
 2.75000E-01    2.52060E+01
 3.00000E-01    2.95105E+01
 3.16914E-01    3.23450E+01
 3.22700E-01    3.26852E+01
 3.69275E-01    3.76713E+01
 4.00000E-01    4.07722E+01
 4.09541E-01    4.17482E+01
 4.20855E-01    4.29172E+01
 4.46179E-01    4.55460E+01
 4.54262E-01    4.62331E+01
 4.60096E-01    4.67745E+01
 4.88603E-01    4.91875E+01
 5.00000E-01    4.98624E+01
 5.11285E-01    5.07126E+01
 5.15209E-01    5.10123E+01
 5.24266E-01    5.12597E+01
 5.37548E-01    5.20645E+01
 5.53702E-01    5.31067E+01
 5.71502E-01    5.43072E+01
 5.90780E-01    5.51106E+01
 6.00000E-01    5.55156E+01
 6.11389E-01    5.61792E+01
 6.13653E-01    5.63143E+01
 6.32172E-01    5.73271E+01
 6.37136E-01    5.74032E+01
 6.46024E-01    5.76939E+01
 6.82575E-01    5.93424E+01
 6.92614E-01    5.98077E+01
 7.00000E-01    5.97181E+01
 7.00441E-01    5.97292E+01
 7.03522E-01    5.96804E+01
 7.21544E-01    6.01956E+01
 7.23104E-01    6.01630E+01
 7.35494E-01    6.05050E+01
 8.00000E-01    6.30921E+01
 9.00000E-01    6.65062E+01
 1.00000E+00    6.75960E+01
 1.10000E+00    6.71725E+01
 1.20000E+00    6.60020E+01
 1.30000E+00    6.35994E+01
 1.40000E+00    6.15546E+01
 1.50000E+00    5.94540E+01
 1.60000E+00    5.65604E+01
 1.70000E+00    5.42111E+01
 1.80000E+00    5.20702E+01
 1.90000E+00    5.04554E+01
 2.00000E+00    4.92791E+01
 2.25000E+00    4.47937E+01
 2.50000E+00    4.21304E+01
 2.75000E+00    3.94032E+01
 3.00000E+00    3.75338E+01
 3.50000E+00    3.49090E+01
 4.00000E+00    3.34132E+01
 4.50000E+00    3.24769E+01
 5.00000E+00    3.18153E+01
 5.50000E+00    3.12382E+01
 6.00000E+00    3.06085E+01
 6.50000E+00    2.98489E+01
 7.00000E+00    2.89431E+01
 7.50000E+00    2.79192E+01
 8.00000E+00    2.68272E+01
 8.50000E+00    2.57175E+01
 9.00000E+00    2.46294E+01
 9.50000E+00    2.35862E+01
 1.00000E+01    2.26004E+01
 1.05000E+01    2.17065E+01
 1.10000E+01    2.08127E+01
 1.15000E+01    2.00316E+01
 1.20000E+01    1.92506E+01
 1.25000E+01    1.85610E+01
 1.30000E+01    1.78716E+01
 1.35000E+01    1.72572E+01
 1.40000E+01    1.66428E+01
 1.45000E+01    1.60942E+01
 1.50000E+01    1.55457E+01
 1.55000E+01    1.50544E+01
 1.60000E+01    1.45632E+01
 1.65000E+01    1.41184E+01
 1.70000E+01    1.36737E+01
 1.75000E+01    1.32631E+01
 1.80000E+01    1.28525E+01
 1.85000E+01    1.24664E+01
 1.90000E+01    1.20804E+01
 1.95000E+01    1.17144E+01
 2.00000E+01    1.13484E+01
