# n + Dy161 : (n,n'33)  
# jendl4.0   N.Iwamoto,S.Chiba                 EVAL-Nov09
# uncertainties: n
# # energies =    58
#   E(MeV)       xs(mb) 
 6.92614E-01    0.00000E+00
 7.00000E-01    7.44574E+00
 7.00441E-01    7.65460E+00
 7.03522E-01    8.92276E+00
 7.21544E-01    1.42851E+01
 7.23104E-01    1.46498E+01
 7.35494E-01    1.73644E+01
 8.00000E-01    2.75782E+01
 9.00000E-01    3.61715E+01
 1.00000E+00    3.95178E+01
 1.10000E+00    4.02290E+01
 1.20000E+00    3.95944E+01
 1.30000E+00    3.78442E+01
 1.40000E+00    3.55350E+01
 1.50000E+00    3.28656E+01
 1.60000E+00    2.98202E+01
 1.70000E+00    2.67519E+01
 1.80000E+00    2.37260E+01
 1.90000E+00    2.10396E+01
 2.00000E+00    1.84018E+01
 2.25000E+00    1.28512E+01
 2.50000E+00    9.18940E+00
 2.75000E+00    6.41685E+00
 3.00000E+00    4.55156E+00
 3.50000E+00    2.24938E+00
 4.00000E+00    1.11081E+00
 4.50000E+00    5.54186E-01
 5.00000E+00    2.87329E-01
 5.50000E+00    1.61471E-01
 6.00000E+00    1.02151E-01
 6.50000E+00    7.34833E-02
 7.00000E+00    5.89310E-02
 7.50000E+00    5.08602E-02
 8.00000E+00    4.57693E-02
 8.50000E+00    4.21026E-02
 9.00000E+00    3.91749E-02
 9.50000E+00    3.66747E-02
 1.00000E+01    3.44668E-02
 1.05000E+01    3.24945E-02
 1.10000E+01    3.06722E-02
 1.15000E+01    2.90301E-02
 1.20000E+01    2.74983E-02
 1.25000E+01    2.61028E-02
 1.30000E+01    2.47972E-02
 1.35000E+01    2.36033E-02
 1.40000E+01    2.24848E-02
 1.45000E+01    2.14551E-02
 1.50000E+01    2.04899E-02
 1.55000E+01    1.96005E-02
 1.60000E+01    1.87686E-02
 1.65000E+01    1.79913E-02
 1.70000E+01    1.72634E-02
 1.75000E+01    1.65713E-02
 1.80000E+01    1.59226E-02
 1.85000E+01    1.53058E-02
 1.90000E+01    1.47280E-02
 1.95000E+01    1.41733E-02
 2.00000E+01    1.36532E-02
