# n + Dy161 : (n,n'09)  
# jendl4.0   N.Iwamoto,S.Chiba                 EVAL-Nov09
# uncertainties: n
# # energies =    89
#   E(MeV)       xs(mb) 
 2.14287E-01    0.00000E+00
 2.25000E-01    6.88801E+01
 2.50000E-01    1.12722E+02
 2.69116E-01    1.34079E+02
 2.75000E-01    1.39399E+02
 3.00000E-01    1.58422E+02
 3.16914E-01    1.68712E+02
 3.22700E-01    1.70292E+02
 3.69275E-01    1.86858E+02
 4.00000E-01    1.94563E+02
 4.09541E-01    1.96954E+02
 4.20855E-01    1.99150E+02
 4.46179E-01    2.02266E+02
 4.54262E-01    2.03213E+02
 4.60096E-01    2.02450E+02
 4.88603E-01    2.03226E+02
 5.00000E-01    2.03589E+02
 5.11285E-01    2.04217E+02
 5.15209E-01    2.04378E+02
 5.24266E-01    2.03464E+02
 5.37548E-01    2.02860E+02
 5.53702E-01    2.00587E+02
 5.71502E-01    1.98485E+02
 5.90780E-01    1.94660E+02
 6.00000E-01    1.93574E+02
 6.11389E-01    1.92557E+02
 6.13653E-01    1.92361E+02
 6.32172E-01    1.88535E+02
 6.37136E-01    1.87420E+02
 6.46024E-01    1.84854E+02
 6.82575E-01    1.78924E+02
 6.92614E-01    1.77275E+02
 7.00000E-01    1.75771E+02
 7.00441E-01    1.75701E+02
 7.03522E-01    1.74664E+02
 7.21544E-01    1.70869E+02
 7.23104E-01    1.70411E+02
 7.35494E-01    1.67936E+02
 8.00000E-01    1.56804E+02
 9.00000E-01    1.40642E+02
 1.00000E+00    1.22480E+02
 1.10000E+00    1.05461E+02
 1.20000E+00    9.02525E+01
 1.30000E+00    7.66327E+01
 1.40000E+00    6.53876E+01
 1.50000E+00    5.54710E+01
 1.60000E+00    4.71503E+01
 1.70000E+00    4.03230E+01
 1.80000E+00    3.42797E+01
 1.90000E+00    2.92138E+01
 2.00000E+00    2.49999E+01
 2.25000E+00    1.67642E+01
 2.50000E+00    1.16173E+01
 2.75000E+00    7.89080E+00
 3.00000E+00    5.47985E+00
 3.50000E+00    2.60634E+00
 4.00000E+00    1.25274E+00
 4.50000E+00    6.17238E-01
 5.00000E+00    3.21187E-01
 5.50000E+00    1.83464E-01
 6.00000E+00    1.18646E-01
 6.50000E+00    8.70804E-02
 7.00000E+00    7.07924E-02
 7.50000E+00    6.15252E-02
 8.00000E+00    5.55028E-02
 8.50000E+00    5.10546E-02
 9.00000E+00    4.74466E-02
 9.50000E+00    4.43436E-02
 1.00000E+01    4.15999E-02
 1.05000E+01    3.91524E-02
 1.10000E+01    3.68944E-02
 1.15000E+01    3.48668E-02
 1.20000E+01    3.29799E-02
 1.25000E+01    3.12663E-02
 1.30000E+01    2.96664E-02
 1.35000E+01    2.82073E-02
 1.40000E+01    2.68422E-02
 1.45000E+01    2.55839E-02
 1.50000E+01    2.44065E-02
 1.55000E+01    2.33309E-02
 1.60000E+01    2.23167E-02
 1.65000E+01    2.13689E-02
 1.70000E+01    2.04820E-02
 1.75000E+01    1.96449E-02
 1.80000E+01    1.88614E-02
 1.85000E+01    1.81157E-02
 1.90000E+01    1.74181E-02
 1.95000E+01    1.67473E-02
 2.00000E+01    1.61194E-02
