# n + Dy161 : (n,n'08)  
# jendl4.0   N.Iwamoto,S.Chiba                 EVAL-Nov09
# uncertainties: n
# # energies =    90
#   E(MeV)       xs(mb) 
 2.02347E-01    0.00000E+00
 2.14287E-01    3.80257E+01
 2.25000E-01    4.60388E+01
 2.50000E-01    6.08869E+01
 2.69116E-01    6.95303E+01
 2.75000E-01    7.19456E+01
 3.00000E-01    8.09047E+01
 3.16914E-01    8.62293E+01
 3.22700E-01    8.64487E+01
 3.69275E-01    9.57019E+01
 4.00000E-01    1.01686E+02
 4.09541E-01    1.03309E+02
 4.20855E-01    1.05123E+02
 4.46179E-01    1.08988E+02
 4.54262E-01    1.10148E+02
 4.60096E-01    1.10769E+02
 4.88603E-01    1.14173E+02
 5.00000E-01    1.15367E+02
 5.11285E-01    1.16344E+02
 5.15209E-01    1.16652E+02
 5.24266E-01    1.16448E+02
 5.37548E-01    1.17031E+02
 5.53702E-01    1.17446E+02
 5.71502E-01    1.18125E+02
 5.90780E-01    1.17608E+02
 6.00000E-01    1.17703E+02
 6.11389E-01    1.17723E+02
 6.13653E-01    1.17717E+02
 6.32172E-01    1.17171E+02
 6.37136E-01    1.16686E+02
 6.46024E-01    1.15956E+02
 6.82575E-01    1.14692E+02
 6.92614E-01    1.14455E+02
 7.00000E-01    1.13693E+02
 7.00441E-01    1.13668E+02
 7.03522E-01    1.13096E+02
 7.21544E-01    1.11565E+02
 7.23104E-01    1.11281E+02
 7.35494E-01    1.10226E+02
 8.00000E-01    1.06366E+02
 9.00000E-01    9.92156E+01
 1.00000E+00    8.92866E+01
 1.10000E+00    7.90062E+01
 1.20000E+00    6.92723E+01
 1.30000E+00    5.99751E+01
 1.40000E+00    5.21545E+01
 1.50000E+00    4.49199E+01
 1.60000E+00    3.87075E+01
 1.70000E+00    3.35261E+01
 1.80000E+00    2.87803E+01
 1.90000E+00    2.47911E+01
 2.00000E+00    2.14318E+01
 2.25000E+00    1.46430E+01
 2.50000E+00    1.03207E+01
 2.75000E+00    7.10298E+00
 3.00000E+00    4.94302E+00
 3.50000E+00    2.37200E+00
 4.00000E+00    1.13284E+00
 4.50000E+00    5.41999E-01
 5.00000E+00    2.64527E-01
 5.50000E+00    1.35560E-01
 6.00000E+00    7.57654E-02
 6.50000E+00    4.77485E-02
 7.00000E+00    3.43380E-02
 7.50000E+00    2.75738E-02
 8.00000E+00    2.37984E-02
 8.50000E+00    2.13923E-02
 9.00000E+00    1.96491E-02
 9.50000E+00    1.82554E-02
 1.00000E+01    1.70737E-02
 1.05000E+01    1.60435E-02
 1.10000E+01    1.51052E-02
 1.15000E+01    1.42683E-02
 1.20000E+01    1.34924E-02
 1.25000E+01    1.27893E-02
 1.30000E+01    1.21335E-02
 1.35000E+01    1.15358E-02
 1.40000E+01    1.09771E-02
 1.45000E+01    1.04640E-02
 1.50000E+01    9.98379E-03
 1.55000E+01    9.54033E-03
 1.60000E+01    9.12568E-03
 1.65000E+01    8.73821E-03
 1.70000E+01    8.37563E-03
 1.75000E+01    8.03341E-03
 1.80000E+01    7.71311E-03
 1.85000E+01    7.40824E-03
 1.90000E+01    7.12304E-03
 1.95000E+01    6.84874E-03
 2.00000E+01    6.59207E-03
