# n + Mo  0 : (n,xa)
# jendl4.0   K.Shibata, A.Ichihara, S.Kunieda+ EVAL-MAR09
#
# # energies =    64
#   E(MeV)          xs(mb) 
 2.06287E-01    1.76491E-03
 3.00000E-01    1.33885E-03
 4.00000E-01    7.85982E-04
 5.00000E-01    1.32513E-03
 6.00000E-01    2.62201E-03
 7.00000E-01    3.76164E-03
 7.73936E-01    4.02076E-03
 7.94557E-01    4.09303E-03
 8.00000E-01    4.11210E-03
 8.29349E-01    4.09483E-03
 9.00000E-01    4.05326E-03
 9.57747E-01    4.22334E-03
 1.00000E+00    4.34777E-03
 1.05032E+00    4.57175E-03
 1.06799E+00    4.65044E-03
 1.08513E+00    4.72674E-03
 1.10361E+00    4.80897E-03
 1.31643E+00    5.75639E-03
 1.33807E+00    5.85272E-03
 1.38429E+00    6.05845E-03
 1.39063E+00    6.08669E-03
 1.44129E+00    6.31218E-03
 1.45581E+00    6.37684E-03
 1.50000E+00    6.57354E-03
 1.55717E+00    8.57809E-03
 1.56821E+00    8.96532E-03
 1.63744E+00    1.13927E-02
 1.66258E+00    1.22743E-02
 1.67794E+00    1.28127E-02
 1.68371E+00    1.30150E-02
 1.70089E+00    1.36174E-02
 1.71605E+00    1.41490E-02
 1.76179E+00    1.57528E-02
 1.81576E+00    1.76451E-02
 1.82746E+00    1.80554E-02
 1.83756E+00    1.84097E-02
 2.00000E+00    2.41054E-02
 2.50000E+00    4.58062E-02
 3.00000E+00    8.03045E-02
 3.50000E+00    1.36946E-01
 4.00000E+00    2.19127E-01
 4.50000E+00    5.38202E-01
 5.00000E+00    7.17124E-01
 5.50000E+00    9.14493E-01
 6.00000E+00    1.15821E+00
 6.50000E+00    1.43562E+00
 7.00000E+00    1.76288E+00
 7.50000E+00    2.08661E+00
 8.10000E+00    2.54488E+00
 8.50000E+00    2.84566E+00
 9.00000E+00    3.31477E+00
 9.50000E+00    3.76841E+00
 1.00000E+01    4.51738E+00
 1.10000E+01    5.87841E+00
 1.20000E+01    7.64811E+00
 1.30000E+01    9.80518E+00
 1.40000E+01    1.21756E+01
 1.45000E+01    1.34343E+01
 1.50000E+01    1.46687E+01
 1.60000E+01    1.71279E+01
 1.70000E+01    1.95232E+01
 1.80000E+01    2.17466E+01
 1.90000E+01    2.37360E+01
 2.00000E+01    2.55585E+01
