# n + B  10 : (n,g)     
# jendl.ad   S.CHIBA                           EVAL-MAR87
# uncertainties: n
# # energies =    69
#   E(MeV)       xs(mb) 
 1.00000E-10    3.49113E+03
 5.00000E-09    9.50576E+02
 1.00000E-08    7.19910E+02
 1.50000E-08    6.04856E+02
 2.00000E-08    5.32158E+02
 2.50000E-08    4.80775E+02
 3.00000E-08    4.41945E+02
 3.50000E-08    4.06331E+02
 4.20000E-08    3.71656E+02
 5.00000E-08    3.42815E+02
 5.80000E-08    3.18628E+02
 6.70000E-08    2.94055E+02
 8.00000E-08    2.66115E+02
 1.00000E-07    2.31564E+02
 1.40000E-07    1.99834E+02
 1.80000E-07    1.78440E+02
 2.20000E-07    1.64328E+02
 2.50000E-07    1.54710E+02
 2.80000E-07    1.47805E+02
 3.00000E-07    1.42951E+02
 3.20000E-07    1.37552E+02
 3.50000E-07    1.30103E+02
 4.00000E-07    1.19041E+02
 5.00000E-07    1.06476E+02
 6.25000E-07    9.52715E+01
 7.80000E-07    8.81872E+01
 8.50000E-07    8.48470E+01
 9.10000E-07    8.25136E+01
 9.50000E-07    8.11631E+01
 9.72000E-07    8.02094E+01
 9.96000E-07    7.92481E+01
 1.02000E-06    7.83042E+01
 1.04500E-06    7.73604E+01
 1.07100E-06    7.64313E+01
 1.09700E-06    7.55322E+01
 1.12300E-06    7.46540E+01
 1.15000E-06    7.19776E+01
 1.30000E-06    6.73595E+01
 1.50000E-06    5.98211E+01
 2.10000E-06    5.21069E+01
 2.60000E-06    4.65434E+01
 3.30000E-06    4.17808E+01
 4.00000E-06    3.20260E+01
 9.87700E-06    2.25196E+01
 1.59680E-05    1.74141E+01
 2.77000E-05    1.32212E+01
 4.80520E-05    1.02789E+01
 7.55014E-05    7.76999E+00
 1.48728E-04    5.25158E+00
 3.67262E-04    3.34196E+00
 9.06898E-04    2.36584E+00
 1.42510E-03    1.88729E+00
 2.23945E-03    1.50567E+00
 3.51910E-03    1.20108E+00
 5.53000E-03    9.47098E-01
 9.11800E-03    7.37672E-01
 1.50300E-02    5.74520E-01
 2.47800E-02    4.47445E-01
 4.08500E-02    3.48479E-01
 6.73400E-02    2.71452E-01
 1.11000E-01    2.11418E-01
 1.83000E-01    1.64613E-01
 3.02000E-01    1.28034E-01
 5.00000E-01    9.97076E-02
 8.21000E-01    7.77452E-02
 1.35300E+00    6.05441E-02
 2.23100E+00    4.71565E-02
 3.67900E+00    3.67228E-02
 6.06500E+00    2.85978E-02
