# n + Sr 84 : (n,xn)    
# jendl4.0   K.Shibata, A.Ichihara, S.Kunieda  EVAL-AUG09
# 
# # energies =    54
#   E(MeV)        xs(mb) 
 8.02836E-01    0.00000E+00
 9.00000E-01    4.88900E+02
 1.00000E+00    7.50100E+02
 1.47169E+00    1.09340E+03
 1.50000E+00    1.19915E+03
 1.52005E+00    1.20518E+03
 1.78917E+00    1.37856E+03
 2.00000E+00    1.62310E+03
 2.08143E+00    1.58429E+03
 2.09994E+00    1.58466E+03
 2.32585E+00    1.63694E+03
 2.41873E+00    1.70811E+03
 2.47774E+00    1.79842E+03
 2.50000E+00    1.85197E+03
 2.55535E+00    1.84472E+03
 2.62996E+00    1.84383E+03
 2.76872E+00    1.86962E+03
 2.80262E+00    1.87906E+03
 2.84190E+00    1.89140E+03
 2.92251E+00    1.91726E+03
 3.00000E+00    1.97528E+03
 3.07810E+00    1.97116E+03
 3.13619E+00    1.96983E+03
 3.19559E+00    1.96881E+03
 3.21316E+00    1.96855E+03
 3.28907E+00    1.98827E+03
 3.31016E+00    1.99813E+03
 3.31886E+00    2.00225E+03
 3.32898E+00    2.00715E+03
 3.50000E+00    2.10962E+03
 4.00000E+00    2.07647E+03
 4.50000E+00    2.02795E+03
 5.00000E+00    1.98150E+03
 5.50000E+00    1.94070E+03
 6.00000E+00    1.90750E+03
 6.50000E+00    1.88437E+03
 7.00000E+00    1.86622E+03
 7.50000E+00    1.85379E+03
 8.00000E+00    1.84374E+03
 8.50000E+00    1.83209E+03
 9.00000E+00    1.81951E+03
 9.50000E+00    1.80640E+03
 1.00000E+01    1.79164E+03
 1.10000E+01    1.76272E+03
 1.20000E+01    1.73561E+03
 1.30000E+01    1.94238E+03
 1.40000E+01    2.19251E+03
 1.45000E+01    2.26468E+03
 1.50000E+01    2.31586E+03
 1.60000E+01    2.39680E+03
 1.70000E+01    2.46985E+03
 1.80000E+01    2.53118E+03
 1.90000E+01    2.56963E+03
 2.00000E+01    2.58959E+03
