# n + Sr 84 : (n,xa)    
# jendl4.0   K.Shibata, A.Ichihara, S.Kunieda  EVAL-AUG09
# 
# # energies =    54
#   E(MeV)        xs(mb) 
 8.02836E-01    0.00000E+00
 9.00000E-01    0.00000E+00
 1.00000E+00    0.00000E+00
 1.47169E+00    0.00000E+00
 1.50000E+00    0.00000E+00
 1.52005E+00    0.00000E+00
 1.78917E+00    0.00000E+00
 2.00000E+00    0.00000E+00
 2.08143E+00    0.00000E+00
 2.09994E+00    0.00000E+00
 2.32585E+00    0.00000E+00
 2.41873E+00    0.00000E+00
 2.47774E+00    0.00000E+00
 2.50000E+00    0.00000E+00
 2.55535E+00    0.00000E+00
 2.62996E+00    0.00000E+00
 2.76872E+00    0.00000E+00
 2.80262E+00    0.00000E+00
 2.84190E+00    0.00000E+00
 2.92251E+00    0.00000E+00
 3.00000E+00    0.00000E+00
 3.07810E+00    1.65260E-04
 3.13619E+00    2.88178E-04
 3.19559E+00    4.13860E-04
 3.21316E+00    4.51055E-04
 3.28907E+00    6.11664E-04
 3.31016E+00    6.56290E-04
 3.31886E+00    6.74708E-04
 3.32898E+00    6.96122E-04
 3.50000E+00    1.05800E-03
 4.00000E+00    9.79500E-03
 4.50000E+00    7.14200E-02
 5.00000E+00    2.08100E-01
 5.50000E+00    5.22400E-01
 6.00000E+00    8.63700E-01
 6.50000E+00    1.27900E+00
 7.00000E+00    1.73400E+00
 7.50000E+00    2.18900E+00
 8.00000E+00    2.48500E+00
 8.50000E+00    2.75400E+00
 9.00000E+00    2.87600E+00
 9.50000E+00    3.09900E+00
 1.00000E+01    3.25400E+00
 1.10000E+01    4.00600E+00
 1.20000E+01    5.26312E+00
 1.30000E+01    7.07991E+00
 1.40000E+01    9.48890E+00
 1.45000E+01    1.09718E+01
 1.50000E+01    1.26410E+01
 1.60000E+01    1.63180E+01
 1.70000E+01    2.01080E+01
 1.80000E+01    2.38000E+01
 1.90000E+01    2.72300E+01
 2.00000E+01    3.03620E+01
