# n + Sr 84 : (n,xp)    
# jendl4.0   K.Shibata, A.Ichihara, S.Kunieda  EVAL-AUG09
# 
# # energies =    54
#   E(MeV)        xs(mb) 
 8.02836E-01    0.00000E+00
 9.00000E-01    0.00000E+00
 1.00000E+00    0.00000E+00
 1.47169E+00    0.00000E+00
 1.50000E+00    0.00000E+00
 1.52005E+00    0.00000E+00
 1.78917E+00    0.00000E+00
 2.00000E+00    0.00000E+00
 2.08143E+00    3.01462E-02
 2.09994E+00    3.69985E-02
 2.32585E+00    1.20628E-01
 2.41873E+00    1.55014E-01
 2.47774E+00    1.76859E-01
 2.50000E+00    1.85100E-01
 2.55535E+00    3.04647E-01
 2.62996E+00    4.65781E-01
 2.76872E+00    7.65473E-01
 2.80262E+00    8.38694E-01
 2.84190E+00    9.23546E-01
 2.92251E+00    1.09764E+00
 3.00000E+00    1.26500E+00
 3.07810E+00    1.83482E+00
 3.13619E+00    2.25864E+00
 3.19559E+00    2.69200E+00
 3.21316E+00    2.82025E+00
 3.28907E+00    3.37403E+00
 3.31016E+00    3.52790E+00
 3.31886E+00    3.59140E+00
 3.32898E+00    3.66524E+00
 3.50000E+00    4.91300E+00
 4.00000E+00    1.27500E+01
 4.50000E+00    2.36000E+01
 5.00000E+00    3.73700E+01
 5.50000E+00    4.86400E+01
 6.00000E+00    5.99700E+01
 6.50000E+00    6.59900E+01
 7.00000E+00    7.10600E+01
 7.50000E+00    7.22400E+01
 8.00000E+00    7.23600E+01
 8.50000E+00    7.38600E+01
 9.00000E+00    7.65300E+01
 9.50000E+00    7.92400E+01
 1.00000E+01    8.37900E+01
 1.10000E+01    9.30044E+01
 1.20000E+01    1.12340E+02
 1.30000E+01    1.47930E+02
 1.40000E+01    1.77360E+02
 1.45000E+01    1.96040E+02
 1.50000E+01    2.15600E+02
 1.60000E+01    2.35820E+02
 1.70000E+01    2.35900E+02
 1.80000E+01    2.31680E+02
 1.90000E+01    2.26470E+02
 2.00000E+01    2.23130E+02
