# n + Pb206 : (n,tot)   
# jendl.ad   O.Iwamoto, N.Iwamoto              EVAL-MAR10
# uncertainties: n
# # energies =    69
#   E(MeV)       xs(mb) 
 1.00000E-10    1.85489E+02
 5.00000E-09    5.05039E+01
 1.00000E-08    3.82471E+01
 1.50000E-08    3.21380E+01
 2.00000E-08    2.82727E+01
 2.50000E-08    2.55433E+01
 3.00000E-08    2.34832E+01
 3.50000E-08    2.15886E+01
 4.20000E-08    1.97443E+01
 5.00000E-08    1.82156E+01
 5.80000E-08    1.69315E+01
 6.70000E-08    1.56231E+01
 8.00000E-08    1.41361E+01
 1.00000E-07    1.23013E+01
 1.40000E-07    1.06124E+01
 1.80000E-07    9.47510E+00
 2.20000E-07    8.72785E+00
 2.50000E-07    8.21717E+00
 2.80000E-07    7.85006E+00
 3.00000E-07    7.59135E+00
 3.20000E-07    7.30444E+00
 3.50000E-07    6.90864E+00
 4.00000E-07    6.32369E+00
 5.00000E-07    5.65639E+00
 6.25000E-07    5.06001E+00
 7.80000E-07    4.68485E+00
 8.50000E-07    4.50912E+00
 9.10000E-07    4.38307E+00
 9.50000E-07    4.31134E+00
 9.72000E-07    4.26094E+00
 9.96000E-07    4.21011E+00
 1.02000E-06    4.16038E+00
 1.04500E-06    4.10892E+00
 1.07100E-06    4.05949E+00
 1.09700E-06    4.01096E+00
 1.12300E-06    3.96315E+00
 1.15000E-06    3.82205E+00
 1.30000E-06    3.57624E+00
 1.50000E-06    3.17521E+00
 2.10000E-06    2.76554E+00
 2.60000E-06    2.46955E+00
 3.30000E-06    2.21703E+00
 4.00000E-06    1.69884E+00
 9.87700E-06    1.19362E+00
 1.59680E-05    9.22203E-01
 2.77000E-05    6.98894E-01
 4.80520E-05    5.41902E-01
 7.55014E-05    4.07572E-01
 1.48728E-04    2.71614E-01
 3.67262E-04    1.66811E-01
 9.06898E-04    1.12274E-01
 1.42510E-03    8.64998E-02
 2.23945E-03    9.42454E+01
 3.51910E-03    7.44274E-02
 5.53000E-03    3.41264E-02
 9.11800E-03    1.16218E+01
 1.50300E-02    2.79403E+01
 2.47800E-02    1.42959E+01
 4.08500E-02    1.05724E+01
 6.73400E-02    9.04189E+00
 1.11000E-01    1.37165E+01
 1.83000E-01    6.65818E+00
 3.02000E-01    7.76779E+00
 5.00000E-01    6.15335E+00
 8.21000E-01    4.44695E+00
 1.35300E+00    2.90099E+00
 2.23100E+00    2.13508E+00
 3.67900E+00    2.11446E+00
 6.06500E+00    1.90600E+02
