# n + Zn 70 : (n,xn)    
# endfb8.0   N.Iwamoto                         EVAL-Dec09
# 
# # energies =    79
#   E(MeV)        xs(mb) 
 1.05000E-01    0.00000E+00
 1.10000E-01    1.48034E-06
 1.20000E-01    1.69652E-06
 1.30000E-01    1.90727E-06
 1.40000E-01    2.05845E-06
 1.50000E-01    2.14287E-06
 1.60000E-01    2.17817E-06
 1.70000E-01    2.18671E-06
 1.80000E-01    2.18204E-06
 1.90000E-01    2.17226E-06
 2.00000E-01    2.16238E-06
 2.25000E-01    1.97656E-05
 2.50000E-01    2.57723E-05
 2.75000E-01    2.79042E-05
 3.00000E-01    2.87369E-05
 4.00000E-01    1.39692E-04
 5.00000E-01    4.42235E-04
 6.00000E-01    1.10623E-03
 7.00000E-01    2.37938E-03
 8.00000E-01    4.60840E-03
 8.97563E-01    8.22675E-03
 9.00000E-01    8.67747E+01
 1.00000E+00    3.32923E+02
 1.08371E+00    4.44031E+02
 1.10000E+00    5.13067E+02
 1.20000E+00    6.72603E+02
 1.30000E+00    7.77895E+02
 1.40000E+00    8.57128E+02
 1.50000E+00    9.19097E+02
 1.57642E+00    9.52512E+02
 1.60000E+00    9.73332E+02
 1.70000E+00    1.01720E+03
 1.78447E+00    1.04697E+03
 1.78448E+00    1.04700E+03
 1.80000E+00    1.06811E+03
 1.81227E+00    1.07628E+03
 1.90000E+00    1.12251E+03
 1.98594E+00    1.15635E+03
 2.00000E+00    1.16961E+03
 2.17128E+00    1.25802E+03
 2.25000E+00    1.29740E+03
 2.40926E+00    1.34739E+03
 2.50000E+00    1.37596E+03
 2.75000E+00    1.48790E+03
 3.00000E+00    1.57940E+03
 3.50000E+00    1.73015E+03
 4.00000E+00    1.79776E+03
 4.50000E+00    1.80804E+03
 5.00000E+00    1.79390E+03
 5.50000E+00    1.77192E+03
 6.00000E+00    1.74932E+03
 6.50000E+00    1.72809E+03
 7.00000E+00    1.70910E+03
 7.50000E+00    1.69346E+03
 8.00000E+00    1.68168E+03
 8.50000E+00    1.67372E+03
 9.00000E+00    1.66565E+03
 9.50000E+00    1.66117E+03
 1.00000E+01    1.73016E+03
 1.05000E+01    1.90834E+03
 1.10000E+01    2.12039E+03
 1.15000E+01    2.29102E+03
 1.20000E+01    2.42124E+03
 1.25000E+01    2.51571E+03
 1.30000E+01    2.59277E+03
 1.35000E+01    2.64823E+03
 1.40000E+01    2.69280E+03
 1.45000E+01    2.71881E+03
 1.50000E+01    2.73983E+03
 1.55000E+01    2.74768E+03
 1.60000E+01    2.75447E+03
 1.65000E+01    2.75157E+03
 1.70000E+01    2.75312E+03
 1.75000E+01    2.75373E+03
 1.80000E+01    2.76619E+03
 1.85000E+01    2.78244E+03
 1.90000E+01    2.80852E+03
 1.95000E+01    2.83662E+03
 2.00000E+01    2.86978E+03
