# n + Zn 70 : (n,xa)    
# endfb8.0   N.Iwamoto                         EVAL-Dec09
# 
# # energies =    79
#   E(MeV)        xs(mb) 
 1.05000E-01    0.00000E+00
 1.10000E-01    0.00000E+00
 1.20000E-01    0.00000E+00
 1.30000E-01    0.00000E+00
 1.40000E-01    0.00000E+00
 1.50000E-01    0.00000E+00
 1.60000E-01    0.00000E+00
 1.70000E-01    0.00000E+00
 1.80000E-01    4.78708E-15
 1.90000E-01    2.99692E-14
 2.00000E-01    5.51513E-14
 2.25000E-01    1.18106E-13
 2.50000E-01    1.81062E-13
 2.75000E-01    2.44017E-13
 3.00000E-01    3.06972E-13
 4.00000E-01    5.58793E-13
 5.00000E-01    8.10614E-13
 6.00000E-01    1.06243E-12
 7.00000E-01    1.31426E-12
 8.00000E-01    1.56608E-12
 8.97563E-01    1.86677E-12
 9.00000E-01    1.88164E-12
 1.00000E+00    2.49177E-12
 1.08371E+00    3.00252E-12
 1.10000E+00    3.10191E-12
 1.20000E+00    3.71204E-12
 1.30000E+00    5.78884E-12
 1.40000E+00    8.27400E-12
 1.50000E+00    1.08609E-11
 1.57642E+00    1.28379E-11
 1.60000E+00    1.34479E-11
 1.70000E+00    1.60348E-11
 1.78447E+00    1.82200E-11
 1.78448E+00    1.82202E-11
 1.80000E+00    1.86217E-11
 1.81227E+00    1.89391E-11
 1.90000E+00    2.12086E-11
 1.98594E+00    2.34701E-11
 2.00000E+00    2.38411E-11
 2.17128E+00    2.83615E-11
 2.25000E+00    3.04390E-11
 2.40926E+00    8.08030E-11
 2.50000E+00    1.98200E-10
 2.75000E+00    3.06430E-09
 3.00000E+00    3.46270E-08
 3.50000E+00    1.70557E-06
 4.00000E+00    3.20138E-05
 4.50000E+00    3.10164E-04
 5.00000E+00    1.87997E-03
 5.50000E+00    8.05908E-03
 6.00000E+00    2.64105E-02
 6.50000E+00    6.96859E-02
 7.00000E+00    1.53345E-01
 7.50000E+00    2.88277E-01
 8.00000E+00    4.72050E-01
 8.50000E+00    6.73378E-01
 9.00000E+00    8.96206E-01
 9.50000E+00    1.13613E+00
 1.00000E+01    1.41606E+00
 1.05000E+01    1.75580E+00
 1.10000E+01    2.16608E+00
 1.15000E+01    2.63934E+00
 1.20000E+01    3.18606E+00
 1.25000E+01    3.81069E+00
 1.30000E+01    4.54415E+00
 1.35000E+01    5.39388E+00
 1.40000E+01    6.39482E+00
 1.45000E+01    7.53568E+00
 1.50000E+01    8.84156E+00
 1.55000E+01    1.02741E+01
 1.60000E+01    1.18713E+01
 1.65000E+01    1.35729E+01
 1.70000E+01    1.54142E+01
 1.75000E+01    1.73405E+01
 1.80000E+01    1.93910E+01
 1.85000E+01    2.15067E+01
 1.90000E+01    2.37262E+01
 1.95000E+01    2.59804E+01
 2.00000E+01    2.83328E+01
