# n + Yb168 : (n,xn)    
# endfb8.0   S.Kunieda, A.Ichihara, K.Shibata+ EVAL-FEB10
# 
# # energies =    76
#   E(MeV)        xs(mb) 
 8.82569E-02    0.00000E+00
 9.00000E-02    3.12500E+01
 1.00000E-01    8.74400E+01
 1.20000E-01    2.00100E+02
 1.40000E-01    3.05800E+02
 1.60000E-01    4.02100E+02
 1.80000E-01    4.90900E+02
 2.00000E-01    5.73300E+02
 2.50000E-01    7.56100E+02
 2.88272E-01    8.76427E+02
 3.00000E-01    9.13771E+02
 3.50000E-01    1.05212E+03
 4.00000E-01    1.17420E+03
 4.50000E-01    1.28291E+03
 5.00000E-01    1.37969E+03
 5.50000E-01    1.46489E+03
 5.88765E-01    1.52429E+03
 6.00000E-01    1.54150E+03
 6.50000E-01    1.60802E+03
 7.00000E-01    1.66439E+03
 7.50000E-01    1.71372E+03
 8.00000E-01    1.75433E+03
 8.50000E-01    1.78868E+03
 9.00000E-01    1.81537E+03
 9.50000E-01    1.83612E+03
 9.75846E-01    1.82837E+03
 9.89759E-01    1.82421E+03
 1.00000E+00    1.88316E+03
 1.07336E+00    1.89568E+03
 1.10459E+00    1.92795E+03
 1.16093E+00    2.02220E+03
 1.16797E+00    2.04023E+03
 1.17824E+00    2.07642E+03
 1.20000E+00    2.15677E+03
 1.20419E+00    2.15969E+03
 1.23839E+00    2.19496E+03
 1.24059E+00    2.19799E+03
 1.28467E+00    2.30010E+03
 1.29473E+00    2.33375E+03
 1.40000E+00    2.71538E+03
 1.60000E+00    2.80646E+03
 1.80000E+00    2.85041E+03
 2.00000E+00    2.87459E+03
 2.20000E+00    2.89097E+03
 2.40000E+00    2.90380E+03
 2.60000E+00    2.91688E+03
 2.80000E+00    2.92864E+03
 3.00000E+00    2.94158E+03
 3.25000E+00    2.95126E+03
 3.50000E+00    2.96595E+03
 3.75000E+00    2.97620E+03
 4.00000E+00    2.97838E+03
 4.25000E+00    2.98058E+03
 4.50000E+00    2.98035E+03
 4.75000E+00    2.98702E+03
 5.00000E+00    2.98632E+03
 5.50000E+00    2.97987E+03
 6.00000E+00    2.97103E+03
 6.50000E+00    2.95249E+03
 7.00000E+00    2.93172E+03
 7.50000E+00    2.90756E+03
 8.00000E+00    2.88444E+03
 8.50000E+00    2.86127E+03
 9.00000E+00    2.83940E+03
 9.50000E+00    2.87964E+03
 1.00000E+01    3.22747E+03
 1.10000E+01    3.87508E+03
 1.20000E+01    4.20373E+03
 1.30000E+01    4.40992E+03
 1.40000E+01    4.52915E+03
 1.50000E+01    4.58662E+03
 1.60000E+01    4.60848E+03
 1.70000E+01    4.61167E+03
 1.80000E+01    4.67084E+03
 1.90000E+01    4.82208E+03
 2.00000E+01    5.00422E+03
