# n + Cl 37 : (n,g)     
# jendl4.0   T.WATANABE                        EVAL-MAR94
# uncertainties: n
# # energies =    69
#   E(MeV)       xs(mb) 
 1.00000E-10    3.02240E+03
 5.00000E-09    8.22937E+02
 1.00000E-08    6.23238E+02
 1.50000E-08    5.23630E+02
 2.00000E-08    4.60694E+02
 2.50000E-08    4.16212E+02
 3.00000E-08    3.82596E+02
 3.50000E-08    3.51760E+02
 4.20000E-08    3.21738E+02
 5.00000E-08    2.96767E+02
 5.80000E-08    2.75822E+02
 6.70000E-08    2.54535E+02
 8.00000E-08    2.30322E+02
 1.00000E-07    2.00375E+02
 1.40000E-07    1.72886E+02
 1.80000E-07    1.54365E+02
 2.20000E-07    1.42152E+02
 2.50000E-07    1.33822E+02
 2.80000E-07    1.27841E+02
 3.00000E-07    1.23637E+02
 3.20000E-07    1.18962E+02
 3.50000E-07    1.12510E+02
 4.00000E-07    1.02934E+02
 5.00000E-07    9.20468E+01
 6.25000E-07    8.23384E+01
 7.80000E-07    7.61962E+01
 8.50000E-07    7.33056E+01
 9.10000E-07    7.12868E+01
 9.50000E-07    7.01172E+01
 9.72000E-07    6.92905E+01
 9.96000E-07    6.84561E+01
 1.02000E-06    6.76358E+01
 1.04500E-06    6.68147E+01
 1.07100E-06    6.60068E+01
 1.09700E-06    6.52254E+01
 1.12300E-06    6.44642E+01
 1.15000E-06    6.21490E+01
 1.30000E-06    5.81437E+01
 1.50000E-06    5.16061E+01
 2.10000E-06    4.49067E+01
 2.60000E-06    4.00702E+01
 3.30000E-06    3.59162E+01
 4.00000E-06    2.73933E+01
 9.87700E-06    1.90334E+01
 1.59680E-05    1.44881E+01
 2.77000E-05    1.06890E+01
 4.80520E-05    7.95941E+00
 7.55014E-05    5.55826E+00
 1.48728E-04    3.07675E+00
 3.67262E-04    1.27395E+00
 9.06898E-04    5.36985E-01
 1.42510E-03    2.98242E-01
 2.23945E-03    1.84547E-01
 3.51910E-03    1.76007E-01
 5.53000E-03    1.90397E+01
 9.11800E-03    2.76491E-01
 1.50300E-02    7.23691E+00
 2.47800E-02    2.35006E+00
 4.08500E-02    2.04782E+00
 6.73400E-02    2.69568E-01
 1.11000E-01    5.03275E-01
 1.83000E-01    9.25720E-01
 3.02000E-01    8.88391E-01
 5.00000E-01    6.84691E-01
 8.21000E-01    5.36950E-01
 1.35300E+00    4.83291E-01
 2.23100E+00    5.30172E-01
 3.67900E+00    2.68454E-01
 6.06500E+00    9.98555E-02
