# n + Zr 94 : (n,tot)   
# jendl.ad   A.Ichihara, S.Kunieda, K.Shibata+ EVAL-AUG13
# uncertainties: n
# # energies =    69
#   E(MeV)       xs(mb) 
 1.00000E-10    3.53967E+02
 5.00000E-09    9.63783E+01
 1.00000E-08    7.29904E+01
 1.50000E-08    6.13259E+01
 2.00000E-08    5.39521E+01
 2.50000E-08    4.87435E+01
 3.00000E-08    4.48098E+01
 3.50000E-08    4.11990E+01
 4.20000E-08    3.76797E+01
 5.00000E-08    3.47538E+01
 5.80000E-08    3.23023E+01
 6.70000E-08    2.98132E+01
 8.00000E-08    2.69755E+01
 1.00000E-07    2.34670E+01
 1.40000E-07    2.02509E+01
 1.80000E-07    1.80800E+01
 2.20000E-07    1.66484E+01
 2.50000E-07    1.56754E+01
 2.80000E-07    1.49771E+01
 3.00000E-07    1.44841E+01
 3.20000E-07    1.39358E+01
 3.50000E-07    1.31793E+01
 4.00000E-07    1.20591E+01
 5.00000E-07    1.07879E+01
 6.25000E-07    9.65261E+00
 7.80000E-07    8.93061E+00
 8.50000E-07    8.59135E+00
 9.10000E-07    8.35452E+00
 9.50000E-07    8.21881E+00
 9.72000E-07    8.12290E+00
 9.96000E-07    8.02569E+00
 1.02000E-06    7.93194E+00
 1.04500E-06    7.83449E+00
 1.07100E-06    7.73812E+00
 1.09700E-06    7.64895E+00
 1.12300E-06    7.55839E+00
 1.15000E-06    7.28628E+00
 1.30000E-06    6.81577E+00
 1.50000E-06    6.04967E+00
 2.10000E-06    5.26550E+00
 2.60000E-06    4.70007E+00
 3.30000E-06    4.21483E+00
 4.00000E-06    3.22145E+00
 9.87700E-06    2.24923E+00
 1.59680E-05    1.72312E+00
 2.77000E-05    1.28630E+00
 4.80520E-05    9.75039E-01
 7.55014E-05    7.03489E-01
 1.48728E-04    4.24541E-01
 3.67262E-04    2.20854E-01
 9.06898E-04    1.56342E-01
 1.42510E-03    1.00596E+02
 2.23945E-03    6.87547E+01
 3.51910E-03    4.88117E+01
 5.53000E-03    1.28502E+02
 9.11800E-03    5.72724E+01
 1.50300E-02    4.88217E+01
 2.47800E-02    1.48913E+01
 4.08500E-02    1.71663E+01
 6.73400E-02    1.30248E+01
 1.11000E-01    1.09303E+01
 1.83000E-01    9.98255E+00
 3.02000E-01    9.42389E+00
 5.00000E-01    9.57241E+00
 8.21000E-01    6.45414E+00
 1.35300E+00    3.48463E+00
 2.23100E+00    2.19157E+00
 3.67900E+00    1.20155E+00
 6.06500E+00    1.60166E+02
