# n + Th230 :  n        
# jendl4.0   O.Iwamoto, T.Nakagawa, et al.     EVAL-FEB10
# uncertainties: n
# # energies =    58
#   E(MeV)       xs(mb) 
 2.50000E+00    0.00000E+00
 2.70000E+00    3.11820E-13
 2.85000E+00    5.49740E-12
 3.00000E+00    1.05620E-11
 3.25000E+00    7.06590E-10
 3.50000E+00    1.42570E-09
 3.75000E+00    9.53360E-08
 4.00000E+00    1.93090E-07
 4.12500E+00    6.62202E-06
 4.25000E+00    1.29791E-05
 4.50000E+00    2.54924E-05
 4.62500E+00    8.79085E-04
 4.75000E+00    1.73622E-03
 5.00000E+00    3.46060E-03
 5.06250E+00    6.04281E-02
 5.12500E+00    1.18582E-01
 5.25000E+00    2.38432E-01
 5.50000E+00    4.92220E-01
 5.62500E+00    9.99665E+00
 5.75000E+00    1.90997E+01
 6.00000E+00    3.62007E+01
 6.06250E+00    6.13589E+01
 6.12500E+00    8.57708E+01
 6.18750E+00    1.09464E+02
 6.25000E+00    1.32465E+02
 6.37500E+00    1.76490E+02
 6.50000E+00    2.18034E+02
 6.62500E+00    2.76385E+02
 6.75000E+00    3.33555E+02
 6.87500E+00    3.89592E+02
 7.00000E+00    4.44546E+02
 7.50000E+00    5.23852E+02
 7.60000E+00    5.34805E+02
 8.00000E+00    5.07544E+02
 8.50000E+00    4.71505E+02
 9.00000E+00    4.42050E+02
 9.50000E+00    4.16148E+02
 1.00000E+01    3.98874E+02
 1.05000E+01    4.26316E+02
 1.10000E+01    4.53323E+02
 1.15000E+01    4.69826E+02
 1.20000E+01    4.83981E+02
 1.25000E+01    4.83867E+02
 1.30000E+01    4.82144E+02
 1.35000E+01    4.77498E+02
 1.40000E+01    4.59213E+02
 1.45000E+01    4.50411E+02
 1.50000E+01    4.32087E+02
 1.55000E+01    4.22396E+02
 1.60000E+01    4.08761E+02
 1.65000E+01    4.00554E+02
 1.70000E+01    3.90392E+02
 1.75000E+01    3.80123E+02
 1.80000E+01    3.74351E+02
 1.85000E+01    3.66695E+02
 1.90000E+01    3.62761E+02
 1.95000E+01    3.57580E+02
 2.00000E+01    3.54684E+02
