# n + Os186 : (n,xa)    
# jendl4.0   N.Iwamoto                         EVAL-Jan10
# 
# # energies =   100
#   E(MeV)        xs(mb) 
 1.05000E-01    1.99180E-03
 1.10000E-01    1.99521E-03
 1.20000E-01    2.00874E-03
 1.30000E-01    2.02227E-03
 1.37903E-01    2.03536E-03
 1.40000E-01    1.61405E-03
 1.50000E-01    1.46284E-03
 1.60000E-01    1.39879E-03
 1.70000E-01    1.33892E-03
 1.80000E-01    1.29593E-03
 1.90000E-01    1.26174E-03
 2.00000E-01    1.23520E-03
 2.25000E-01    1.19196E-03
 2.50000E-01    1.17326E-03
 2.75000E-01    1.18305E-03
 3.00000E-01    1.19284E-03
 4.00000E-01    1.32906E-03
 4.36442E-01    1.40718E-03
 5.00000E-01    1.54344E-03
 6.00000E-01    1.82212E-03
 7.00000E-01    2.19369E-03
 7.71641E-01    2.52472E-03
 8.00000E-01    2.48064E-03
 8.73653E-01    2.75641E-03
 9.00000E-01    2.85672E-03
 9.15410E-01    2.91772E-03
 1.00000E+00    3.19390E-03
 1.06676E+00    3.54871E-03
 1.07629E+00    3.54259E-03
 1.10000E+00    3.62289E-03
 1.20000E+00    4.19285E-03
 1.21499E+00    4.28269E-03
 1.21500E+00    4.28275E-03
 1.28253E+00    4.61687E-03
 1.30000E+00    4.70331E-03
 1.35926E+00    5.06105E-03
 1.40000E+00    5.43805E-03
 1.42865E+00    5.65553E-03
 1.46078E+00    5.89943E-03
 1.46390E+00    5.90077E-03
 1.46884E+00    6.04401E-03
 1.48810E+00    6.14751E-03
 1.49938E+00    6.12935E-03
 1.50000E+00    6.13456E-03
 1.56829E+00    6.70875E-03
 1.57952E+00    6.78708E-03
 1.60000E+00    6.77909E-03
 1.63200E+00    6.98200E-03
 1.63737E+00    7.01605E-03
 1.64971E+00    7.09430E-03
 1.66255E+00    7.14848E-03
 1.70000E+00    7.46848E-03
 1.71385E+00    7.56374E-03
 1.76030E+00    7.88322E-03
 1.76402E+00    7.90880E-03
 1.78151E+00    8.18476E-03
 1.78428E+00    8.19799E-03
 1.78543E+00    8.20348E-03
 1.80000E+00    8.27308E-03
 1.82245E+00    8.42295E-03
 1.90000E+00    9.31941E-03
 2.00000E+00    1.04804E-02
 2.25000E+00    1.25790E-02
 2.50000E+00    1.61073E-02
 2.75000E+00    1.82419E-02
 3.00000E+00    2.27894E-02
 3.50000E+00    2.96107E-02
 4.00000E+00    3.68364E-02
 4.50000E+00    4.43105E-02
 5.00000E+00    5.21015E-02
 5.50000E+00    6.07271E-02
 6.00000E+00    7.15604E-02
 6.50000E+00    8.70422E-02
 7.00000E+00    1.12509E-01
 7.50000E+00    1.53536E-01
 8.00000E+00    2.15952E-01
 8.50000E+00    3.06731E-01
 9.00000E+00    3.91688E-01
 9.50000E+00    4.85629E-01
 1.00000E+01    6.26710E-01
 1.05000E+01    8.32250E-01
 1.10000E+01    1.11651E+00
 1.15000E+01    1.49054E+00
 1.20000E+01    1.96360E+00
 1.25000E+01    2.54104E+00
 1.30000E+01    3.22364E+00
 1.35000E+01    4.00746E+00
 1.40000E+01    4.88435E+00
 1.45000E+01    5.84409E+00
 1.50000E+01    6.87401E+00
 1.55000E+01    7.96133E+00
 1.60000E+01    9.09305E+00
 1.65000E+01    1.02562E+01
 1.70000E+01    1.14387E+01
 1.75000E+01    1.26305E+01
 1.80000E+01    1.38229E+01
 1.85000E+01    1.50078E+01
 1.90000E+01    1.61789E+01
 1.95000E+01    1.73314E+01
 2.00000E+01    1.84618E+01
