# n + Os186 : (n,xp)    
# jendl4.0   N.Iwamoto                         EVAL-Jan10
# 
# # energies =   100
#   E(MeV)        xs(mb) 
 1.05000E-01    0.00000E+00
 1.10000E-01    0.00000E+00
 1.20000E-01    0.00000E+00
 1.30000E-01    0.00000E+00
 1.37903E-01    0.00000E+00
 1.40000E-01    0.00000E+00
 1.50000E-01    0.00000E+00
 1.60000E-01    0.00000E+00
 1.70000E-01    0.00000E+00
 1.80000E-01    0.00000E+00
 1.90000E-01    0.00000E+00
 2.00000E-01    0.00000E+00
 2.25000E-01    0.00000E+00
 2.50000E-01    0.00000E+00
 2.75000E-01    0.00000E+00
 3.00000E-01    1.25252E-20
 4.00000E-01    1.79952E-19
 4.36442E-01    2.79872E-19
 5.00000E-01    5.24462E-19
 6.00000E-01    1.40462E-18
 7.00000E-01    2.61303E-18
 7.71641E-01    3.66302E-18
 8.00000E-01    4.11299E-18
 8.73653E-01    5.29188E-18
 9.00000E-01    5.71359E-18
 9.15410E-01    5.96024E-18
 1.00000E+00    7.31419E-18
 1.06676E+00    8.38275E-18
 1.07629E+00    8.53529E-18
 1.10000E+00    8.91480E-18
 1.20000E+00    1.05154E-17
 1.21499E+00    1.07553E-17
 1.21500E+00    1.07555E-17
 1.28253E+00    1.18364E-17
 1.30000E+00    1.21160E-17
 1.35926E+00    1.97540E-17
 1.40000E+00    4.29450E-17
 1.42865E+00    8.68780E-17
 1.46078E+00    2.02040E-16
 1.46390E+00    2.18870E-16
 1.46884E+00    2.46710E-16
 1.48810E+00    4.07040E-16
 1.49938E+00    5.44010E-16
 1.50000E+00    5.52800E-16
 1.56829E+00    3.08250E-15
 1.57952E+00    4.04600E-15
 1.60000E+00    6.42030E-15
 1.63200E+00    1.33330E-14
 1.63737E+00    1.50410E-14
 1.64971E+00    1.97920E-14
 1.66255E+00    2.60980E-14
 1.70000E+00    5.66170E-14
 1.71385E+00    7.52610E-14
 1.76030E+00    1.90430E-13
 1.76402E+00    2.04760E-13
 1.78151E+00    2.83370E-13
 1.78428E+00    2.98510E-13
 1.78543E+00    3.05070E-13
 1.80000E+00    3.96610E-13
 1.82245E+00    5.97430E-13
 1.90000E+00    2.33550E-12
 2.00000E+00    1.16980E-11
 2.25000E+00    3.36610E-10
 2.50000E+00    5.29740E-09
 2.75000E+00    4.78150E-08
 3.00000E+00    3.08180E-07
 3.50000E+00    5.40768E-06
 4.00000E+00    4.33652E-05
 4.50000E+00    2.02496E-04
 5.00000E+00    6.43532E-04
 5.50000E+00    1.55377E-03
 6.00000E+00    3.11851E-03
 6.50000E+00    5.64488E-03
 7.00000E+00    9.99660E-03
 7.50000E+00    1.82049E-02
 8.00000E+00    3.41271E-02
 8.50000E+00    6.41759E-02
 9.00000E+00    1.18040E-01
 9.50000E+00    2.08954E-01
 1.00000E+01    3.53624E-01
 1.05000E+01    5.71365E-01
 1.10000E+01    8.82756E-01
 1.15000E+01    1.30795E+00
 1.20000E+01    1.86514E+00
 1.25000E+01    2.56947E+00
 1.30000E+01    3.43251E+00
 1.35000E+01    4.46235E+00
 1.40000E+01    5.66383E+00
 1.45000E+01    7.03898E+00
 1.50000E+01    8.58723E+00
 1.55000E+01    1.03059E+01
 1.60000E+01    1.21900E+01
 1.65000E+01    1.42329E+01
 1.70000E+01    1.64281E+01
 1.75000E+01    1.87669E+01
 1.80000E+01    2.12414E+01
 1.85000E+01    2.38439E+01
 1.90000E+01    2.65675E+01
 1.95000E+01    2.94072E+01
 2.00000E+01    3.23578E+01
