# n + Os186 : (n,n'14)  
# jendl4.0   N.Iwamoto                         EVAL-Jan10
# uncertainties: n
# # energies =    60
#   E(MeV)       xs(mb) 
 1.46884E+00    0.00000E+00
 1.48810E+00    3.89638E+00
 1.49938E+00    5.24842E+00
 1.50000E+00    5.32337E+00
 1.56829E+00    1.42201E+01
 1.57952E+00    1.56733E+01
 1.60000E+00    1.85458E+01
 1.63200E+00    2.32637E+01
 1.63737E+00    2.39480E+01
 1.64971E+00    2.56327E+01
 1.66255E+00    2.72740E+01
 1.70000E+00    3.21498E+01
 1.71385E+00    3.40303E+01
 1.76030E+00    3.92434E+01
 1.76402E+00    3.96652E+01
 1.78151E+00    4.13688E+01
 1.78428E+00    4.16526E+01
 1.78543E+00    4.17732E+01
 1.80000E+00    4.33023E+01
 1.82245E+00    4.56655E+01
 1.90000E+00    5.27871E+01
 2.00000E+00    5.86475E+01
 2.25000E+00    5.71332E+01
 2.50000E+00    5.09848E+01
 2.75000E+00    3.83117E+01
 3.00000E+00    2.89734E+01
 3.50000E+00    1.47499E+01
 4.00000E+00    7.11086E+00
 4.50000E+00    3.33481E+00
 5.00000E+00    1.56920E+00
 5.50000E+00    7.70324E-01
 6.00000E+00    4.16025E-01
 6.50000E+00    2.58797E-01
 7.00000E+00    1.87924E-01
 7.50000E+00    1.53813E-01
 8.00000E+00    1.35328E-01
 8.50000E+00    1.23768E-01
 9.00000E+00    1.15531E-01
 9.50000E+00    1.09007E-01
 1.00000E+01    1.03420E-01
 1.05000E+01    9.83503E-02
 1.10000E+01    9.35890E-02
 1.15000E+01    8.90438E-02
 1.20000E+01    8.46987E-02
 1.25000E+01    8.05651E-02
 1.30000E+01    7.66581E-02
 1.35000E+01    7.29931E-02
 1.40000E+01    6.95769E-02
 1.45000E+01    6.64032E-02
 1.50000E+01    6.34572E-02
 1.55000E+01    6.07193E-02
 1.60000E+01    5.81656E-02
 1.65000E+01    5.57732E-02
 1.70000E+01    5.35194E-02
 1.75000E+01    5.13870E-02
 1.80000E+01    4.93629E-02
 1.85000E+01    4.74388E-02
 1.90000E+01    4.56086E-02
 1.95000E+01    4.38712E-02
 2.00000E+01    4.22253E-02
