# n + Eu151 : (n,n'20)  
# jendl4.0   N.Iwamoto                         EVAL-Nov09
# uncertainties: n
# # energies =    71
#   E(MeV)       xs(mb) 
 5.25680E-01    0.00000E+00
 5.26334E-01    6.36262E+00
 5.49981E-01    2.68332E+01
 5.83886E-01    3.47676E+01
 5.90984E-01    3.44661E+01
 6.00000E-01    3.51358E+01
 6.04493E-01    3.55229E+01
 6.04755E-01    3.55437E+01
 6.15506E-01    3.56543E+01
 6.36929E-01    3.70310E+01
 6.58774E-01    3.83148E+01
 7.00000E-01    4.03785E+01
 7.01970E-01    4.04622E+01
 7.02846E-01    4.04529E+01
 7.19658E-01    4.10227E+01
 7.19779E-01    4.10271E+01
 7.23987E-01    4.10290E+01
 7.39922E-01    4.12678E+01
 7.57408E-01    4.15693E+01
 7.62804E-01    4.17055E+01
 8.00000E-01    4.21776E+01
 9.00000E-01    4.20446E+01
 1.00000E+00    3.96283E+01
 1.10000E+00    3.72666E+01
 1.20000E+00    3.42615E+01
 1.30000E+00    3.08220E+01
 1.40000E+00    2.77155E+01
 1.50000E+00    2.48680E+01
 1.60000E+00    2.19412E+01
 1.70000E+00    1.91629E+01
 1.80000E+00    1.66291E+01
 1.90000E+00    1.43507E+01
 2.00000E+00    1.23306E+01
 2.25000E+00    8.45280E+00
 2.50000E+00    5.52670E+00
 2.75000E+00    3.66564E+00
 3.00000E+00    2.37871E+00
 3.50000E+00    1.01379E+00
 4.00000E+00    4.34972E-01
 4.50000E+00    1.94098E-01
 5.00000E+00    9.47014E-02
 5.50000E+00    5.34177E-02
 6.00000E+00    3.58591E-02
 6.50000E+00    2.80028E-02
 7.00000E+00    2.40187E-02
 7.50000E+00    2.15562E-02
 8.00000E+00    1.97352E-02
 8.50000E+00    1.82500E-02
 9.00000E+00    1.69945E-02
 9.50000E+00    1.59272E-02
 1.00000E+01    1.50093E-02
 1.05000E+01    1.42092E-02
 1.10000E+01    1.34961E-02
 1.15000E+01    1.28442E-02
 1.20000E+01    1.22343E-02
 1.25000E+01    1.16574E-02
 1.30000E+01    1.11202E-02
 1.35000E+01    1.06209E-02
 1.40000E+01    1.01562E-02
 1.45000E+01    9.71972E-03
 1.50000E+01    9.30602E-03
 1.55000E+01    8.91607E-03
 1.60000E+01    8.53987E-03
 1.65000E+01    8.17841E-03
 1.70000E+01    7.82875E-03
 1.75000E+01    7.49696E-03
 1.80000E+01    7.18000E-03
 1.85000E+01    6.88103E-03
 1.90000E+01    6.60193E-03
 1.95000E+01    6.34246E-03
 2.00000E+01    6.09922E-03
