# n + Eu151 : (n,n'13)  
# jendl4.0   N.Iwamoto                         EVAL-Nov09
# uncertainties: n
# # energies =    80
#   E(MeV)       xs(mb) 
 3.52188E-01    0.00000E+00
 3.56014E-01    1.13487E+01
 4.00000E-01    2.65022E+01
 4.18569E-01    3.02746E+01
 5.00000E-01    4.24819E+01
 5.03040E-01    4.29007E+01
 5.05627E-01    4.30678E+01
 5.06785E-01    4.31908E+01
 5.14546E-01    4.34854E+01
 5.25680E-01    4.40038E+01
 5.26334E-01    4.40290E+01
 5.49981E-01    4.58039E+01
 5.83886E-01    4.82943E+01
 5.90984E-01    4.87717E+01
 6.00000E-01    4.91264E+01
 6.04493E-01    4.93779E+01
 6.04755E-01    4.92394E+01
 6.15506E-01    4.88969E+01
 6.36929E-01    4.95057E+01
 6.58774E-01    5.05562E+01
 7.00000E-01    5.24910E+01
 7.01970E-01    5.25870E+01
 7.02846E-01    5.25975E+01
 7.19658E-01    5.32230E+01
 7.19779E-01    5.31732E+01
 7.23987E-01    5.31015E+01
 7.39922E-01    5.35212E+01
 7.57408E-01    5.39929E+01
 7.62804E-01    5.40929E+01
 8.00000E-01    5.48258E+01
 9.00000E-01    5.46801E+01
 1.00000E+00    5.19488E+01
 1.10000E+00    4.76137E+01
 1.20000E+00    4.32529E+01
 1.30000E+00    3.91664E+01
 1.40000E+00    3.50723E+01
 1.50000E+00    3.09145E+01
 1.60000E+00    2.70646E+01
 1.70000E+00    2.35710E+01
 1.80000E+00    2.04288E+01
 1.90000E+00    1.76317E+01
 2.00000E+00    1.51698E+01
 2.25000E+00    1.04726E+01
 2.50000E+00    6.93049E+00
 2.75000E+00    4.65491E+00
 3.00000E+00    3.05104E+00
 3.50000E+00    1.32386E+00
 4.00000E+00    5.74153E-01
 4.50000E+00    2.55900E-01
 5.00000E+00    1.22105E-01
 5.50000E+00    6.55829E-02
 6.00000E+00    4.13529E-02
 6.50000E+00    3.06035E-02
 7.00000E+00    2.53555E-02
 7.50000E+00    2.23190E-02
 8.00000E+00    2.02209E-02
 8.50000E+00    1.85966E-02
 9.00000E+00    1.72684E-02
 9.50000E+00    1.61602E-02
 1.00000E+01    1.52160E-02
 1.05000E+01    1.43966E-02
 1.10000E+01    1.36639E-02
 1.15000E+01    1.29941E-02
 1.20000E+01    1.23685E-02
 1.25000E+01    1.17787E-02
 1.30000E+01    1.12306E-02
 1.35000E+01    1.07221E-02
 1.40000E+01    1.02488E-02
 1.45000E+01    9.80407E-03
 1.50000E+01    9.38239E-03
 1.55000E+01    8.98337E-03
 1.60000E+01    8.60103E-03
 1.65000E+01    8.23472E-03
 1.70000E+01    7.88049E-03
 1.75000E+01    7.54450E-03
 1.80000E+01    7.22179E-03
 1.85000E+01    6.91806E-03
 1.90000E+01    6.63503E-03
 1.95000E+01    6.37220E-03
 2.00000E+01    6.12748E-03
