# n + Eu151 : (n,n'12)  
# jendl4.0   N.Iwamoto                         EVAL-Nov09
# uncertainties: n
# # energies =    81
#   E(MeV)       xs(mb) 
 3.38467E-01    0.00000E+00
 3.52188E-01    8.73555E+01
 3.56014E-01    9.45150E+01
 4.00000E-01    1.28078E+02
 4.18569E-01    1.34304E+02
 5.00000E-01    1.43020E+02
 5.03040E-01    1.43147E+02
 5.05627E-01    1.42385E+02
 5.06785E-01    1.42277E+02
 5.14546E-01    1.41854E+02
 5.25680E-01    1.41657E+02
 5.26334E-01    1.41398E+02
 5.49981E-01    1.38329E+02
 5.83886E-01    1.33768E+02
 5.90984E-01    1.32939E+02
 6.00000E-01    1.31122E+02
 6.04493E-01    1.30615E+02
 6.04755E-01    1.30512E+02
 6.15506E-01    1.28551E+02
 6.36929E-01    1.26799E+02
 6.58774E-01    1.24795E+02
 7.00000E-01    1.21466E+02
 7.01970E-01    1.21421E+02
 7.02846E-01    1.20962E+02
 7.19658E-01    1.19602E+02
 7.19779E-01    1.19570E+02
 7.23987E-01    1.19095E+02
 7.39922E-01    1.18044E+02
 7.57408E-01    1.16745E+02
 7.62804E-01    1.16453E+02
 8.00000E-01    1.14629E+02
 9.00000E-01    1.09013E+02
 1.00000E+00    1.00591E+02
 1.10000E+00    9.01244E+01
 1.20000E+00    8.03047E+01
 1.30000E+00    7.14083E+01
 1.40000E+00    6.25165E+01
 1.50000E+00    5.38352E+01
 1.60000E+00    4.59776E+01
 1.70000E+00    3.90143E+01
 1.80000E+00    3.29380E+01
 1.90000E+00    2.76911E+01
 2.00000E+00    2.32123E+01
 2.25000E+00    1.50667E+01
 2.50000E+00    9.44449E+00
 2.75000E+00    6.06230E+00
 3.00000E+00    3.81067E+00
 3.50000E+00    1.54828E+00
 4.00000E+00    6.33594E-01
 4.50000E+00    2.67662E-01
 5.00000E+00    1.21996E-01
 5.50000E+00    6.36027E-02
 6.00000E+00    3.96959E-02
 6.50000E+00    2.94513E-02
 7.00000E+00    2.45286E-02
 7.50000E+00    2.16724E-02
 8.00000E+00    1.96792E-02
 8.50000E+00    1.81205E-02
 9.00000E+00    1.68379E-02
 9.50000E+00    1.57640E-02
 1.00000E+01    1.48452E-02
 1.05000E+01    1.40461E-02
 1.10000E+01    1.33308E-02
 1.15000E+01    1.26765E-02
 1.20000E+01    1.20655E-02
 1.25000E+01    1.14893E-02
 1.30000E+01    1.09540E-02
 1.35000E+01    1.04575E-02
 1.40000E+01    9.99525E-03
 1.45000E+01    9.56101E-03
 1.50000E+01    9.14926E-03
 1.55000E+01    8.76029E-03
 1.60000E+01    8.38754E-03
 1.65000E+01    8.03040E-03
 1.70000E+01    7.68387E-03
 1.75000E+01    7.35394E-03
 1.80000E+01    7.03945E-03
 1.85000E+01    6.74347E-03
 1.90000E+01    6.46770E-03
 1.95000E+01    6.21162E-03
 2.00000E+01    5.97320E-03
