# n + Eu151 : (n,n'02)  
# jendl4.0   N.Iwamoto                         EVAL-Nov09
# uncertainties: n
# # energies =    96
#   E(MeV)       xs(mb) 
 1.97557E-01    0.00000E+00
 1.97854E-01    5.71056E-02
 2.00000E-01    1.69132E-01
 2.18168E-01    1.26045E+00
 2.25000E-01    1.77696E+00
 2.44916E-01    3.72549E+00
 2.50000E-01    4.24761E+00
 2.62211E-01    5.69949E+00
 2.75000E-01    7.32963E+00
 3.00000E-01    1.08671E+01
 3.08317E-01    1.20741E+01
 3.09324E-01    1.22221E+01
 3.09585E-01    1.22605E+01
 3.09918E-01    1.22472E+01
 3.34400E-01    1.39557E+01
 3.38467E-01    1.44304E+01
 3.52188E-01    1.60851E+01
 3.56014E-01    1.63723E+01
 4.00000E-01    2.03854E+01
 4.18569E-01    2.24003E+01
 5.00000E-01    2.99017E+01
 5.03040E-01    3.01672E+01
 5.05627E-01    3.02694E+01
 5.06785E-01    3.03474E+01
 5.14546E-01    3.00437E+01
 5.25680E-01    2.98493E+01
 5.26334E-01    2.98712E+01
 5.49981E-01    3.10074E+01
 5.83886E-01    3.29665E+01
 5.90984E-01    3.33836E+01
 6.00000E-01    3.36949E+01
 6.04493E-01    3.38667E+01
 6.04755E-01    3.38047E+01
 6.15506E-01    3.37569E+01
 6.36929E-01    3.42244E+01
 6.58774E-01    3.49891E+01
 7.00000E-01    3.64906E+01
 7.01970E-01    3.65601E+01
 7.02846E-01    3.65887E+01
 7.19658E-01    3.69439E+01
 7.19779E-01    3.68863E+01
 7.23987E-01    3.67345E+01
 7.39922E-01    3.69195E+01
 7.57408E-01    3.72866E+01
 7.62804E-01    3.74012E+01
 8.00000E-01    3.83153E+01
 9.00000E-01    3.81763E+01
 1.00000E+00    3.60223E+01
 1.10000E+00    3.37154E+01
 1.20000E+00    3.12367E+01
 1.30000E+00    2.82385E+01
 1.40000E+00    2.53190E+01
 1.50000E+00    2.25200E+01
 1.60000E+00    1.99111E+01
 1.70000E+00    1.75204E+01
 1.80000E+00    1.53460E+01
 1.90000E+00    1.33868E+01
 2.00000E+00    1.16403E+01
 2.25000E+00    8.23233E+00
 2.50000E+00    5.57686E+00
 2.75000E+00    3.81135E+00
 3.00000E+00    2.75265E+00
 3.50000E+00    1.32190E+00
 4.00000E+00    6.75505E-01
 4.50000E+00    3.87804E-01
 5.00000E+00    2.58138E-01
 5.50000E+00    1.96765E-01
 6.00000E+00    1.65267E-01
 6.50000E+00    1.46693E-01
 7.00000E+00    1.33606E-01
 7.50000E+00    1.22895E-01
 8.00000E+00    1.13554E-01
 8.50000E+00    1.05351E-01
 9.00000E+00    9.82193E-02
 9.50000E+00    9.20911E-02
 1.00000E+01    8.67847E-02
 1.05000E+01    8.21355E-02
 1.10000E+01    7.79468E-02
 1.15000E+01    7.41018E-02
 1.20000E+01    7.05071E-02
 1.25000E+01    6.71206E-02
 1.30000E+01    6.39782E-02
 1.35000E+01    6.10651E-02
 1.40000E+01    5.83528E-02
 1.45000E+01    5.58030E-02
 1.50000E+01    5.33837E-02
 1.55000E+01    5.10796E-02
 1.60000E+01    4.88726E-02
 1.65000E+01    4.67598E-02
 1.70000E+01    4.47195E-02
 1.75000E+01    4.27883E-02
 1.80000E+01    4.09499E-02
 1.85000E+01    3.92221E-02
 1.90000E+01    3.76143E-02
 1.95000E+01    3.61225E-02
 2.00000E+01    3.47337E-02
