# n + Eu151 : (n,n'03)  
# jendl4.0   N.Iwamoto                         EVAL-Nov09
# uncertainties: n
# # energies =    95
#   E(MeV)       xs(mb) 
 1.97854E-01    0.00000E+00
 2.00000E-01    6.89487E+01
 2.18168E-01    1.45875E+02
 2.25000E-01    1.56980E+02
 2.44916E-01    1.77116E+02
 2.50000E-01    1.80249E+02
 2.62211E-01    1.88210E+02
 2.75000E-01    1.81387E+02
 3.00000E-01    1.85872E+02
 3.08317E-01    1.87197E+02
 3.09324E-01    1.83964E+02
 3.09585E-01    1.81926E+02
 3.09918E-01    1.80744E+02
 3.34400E-01    1.68967E+02
 3.38467E-01    1.62527E+02
 3.52188E-01    1.52524E+02
 3.56014E-01    1.51506E+02
 4.00000E-01    1.44899E+02
 4.18569E-01    1.45478E+02
 5.00000E-01    1.46951E+02
 5.03040E-01    1.47008E+02
 5.05627E-01    1.46829E+02
 5.06785E-01    1.46808E+02
 5.14546E-01    1.46664E+02
 5.25680E-01    1.46616E+02
 5.26334E-01    1.46045E+02
 5.49981E-01    1.39270E+02
 5.83886E-01    1.34322E+02
 5.90984E-01    1.32921E+02
 6.00000E-01    1.31624E+02
 6.04493E-01    1.31072E+02
 6.04755E-01    1.30996E+02
 6.15506E-01    1.28894E+02
 6.36929E-01    1.26701E+02
 6.58774E-01    1.22632E+02
 7.00000E-01    1.18090E+02
 7.01970E-01    1.17976E+02
 7.02846E-01    1.17580E+02
 7.19658E-01    1.15853E+02
 7.19779E-01    1.15830E+02
 7.23987E-01    1.14811E+02
 7.39922E-01    1.12374E+02
 7.57408E-01    1.10295E+02
 7.62804E-01    1.09922E+02
 8.00000E-01    1.07251E+02
 9.00000E-01    9.85251E+01
 1.00000E+00    8.80796E+01
 1.10000E+00    7.87745E+01
 1.20000E+00    7.00459E+01
 1.30000E+00    6.06365E+01
 1.40000E+00    5.21339E+01
 1.50000E+00    4.44741E+01
 1.60000E+00    3.77013E+01
 1.70000E+00    3.18102E+01
 1.80000E+00    2.67420E+01
 1.90000E+00    2.24110E+01
 2.00000E+00    1.87413E+01
 2.25000E+00    1.21130E+01
 2.50000E+00    7.57487E+00
 2.75000E+00    4.84612E+00
 3.00000E+00    3.03123E+00
 3.50000E+00    1.21908E+00
 4.00000E+00    4.93418E-01
 4.50000E+00    2.05648E-01
 5.00000E+00    9.20193E-02
 5.50000E+00    4.68085E-02
 6.00000E+00    2.84779E-02
 6.50000E+00    2.07142E-02
 7.00000E+00    1.70473E-02
 7.50000E+00    1.49636E-02
 8.00000E+00    1.35397E-02
 8.50000E+00    1.24443E-02
 9.00000E+00    1.15525E-02
 9.50000E+00    1.08103E-02
 1.00000E+01    1.01780E-02
 1.05000E+01    9.62841E-03
 1.10000E+01    9.13541E-03
 1.15000E+01    8.68385E-03
 1.20000E+01    8.26214E-03
 1.25000E+01    7.86510E-03
 1.30000E+01    7.49677E-03
 1.35000E+01    7.15538E-03
 1.40000E+01    6.83753E-03
 1.45000E+01    6.53875E-03
 1.50000E+01    6.25526E-03
 1.55000E+01    5.98527E-03
 1.60000E+01    5.72667E-03
 1.65000E+01    5.47909E-03
 1.70000E+01    5.24003E-03
 1.75000E+01    5.01373E-03
 1.80000E+01    4.79831E-03
 1.85000E+01    4.59586E-03
 1.90000E+01    4.40747E-03
 1.95000E+01    4.23266E-03
 2.00000E+01    4.06992E-03
