# n + Eu151 : (n,n'18)  
# jendl4.0   N.Iwamoto                         EVAL-Nov09
# uncertainties: n
# # energies =    73
#   E(MeV)       xs(mb) 
 5.06785E-01    0.00000E+00
 5.14546E-01    2.11967E+01
 5.25680E-01    2.90274E+01
 5.26334E-01    2.93747E+01
 5.49981E-01    3.83461E+01
 5.83886E-01    4.58992E+01
 5.90984E-01    4.71340E+01
 6.00000E-01    4.80860E+01
 6.04493E-01    4.86960E+01
 6.04755E-01    4.87112E+01
 6.15506E-01    4.98624E+01
 6.36929E-01    5.21195E+01
 6.58774E-01    5.42727E+01
 7.00000E-01    5.75145E+01
 7.01970E-01    5.76585E+01
 7.02846E-01    5.77066E+01
 7.19658E-01    5.88561E+01
 7.19779E-01    5.87259E+01
 7.23987E-01    5.83997E+01
 7.39922E-01    5.88472E+01
 7.57408E-01    5.97064E+01
 7.62804E-01    5.99151E+01
 8.00000E-01    6.14439E+01
 9.00000E-01    6.38992E+01
 1.00000E+00    6.23092E+01
 1.10000E+00    5.98554E+01
 1.20000E+00    5.53811E+01
 1.30000E+00    5.01070E+01
 1.40000E+00    4.52167E+01
 1.50000E+00    4.06489E+01
 1.60000E+00    3.56027E+01
 1.70000E+00    3.08588E+01
 1.80000E+00    2.65489E+01
 1.90000E+00    2.27065E+01
 2.00000E+00    1.93390E+01
 2.25000E+00    1.29886E+01
 2.50000E+00    8.39764E+00
 2.75000E+00    5.52240E+00
 3.00000E+00    3.53944E+00
 3.50000E+00    1.48139E+00
 4.00000E+00    6.16089E-01
 4.50000E+00    2.60523E-01
 5.00000E+00    1.16313E-01
 5.50000E+00    5.77833E-02
 6.00000E+00    3.37055E-02
 6.50000E+00    2.35158E-02
 7.00000E+00    1.88231E-02
 7.50000E+00    1.62940E-02
 8.00000E+00    1.46565E-02
 8.50000E+00    1.34394E-02
 9.00000E+00    1.24641E-02
 9.50000E+00    1.16583E-02
 1.00000E+01    1.09756E-02
 1.05000E+01    1.03853E-02
 1.10000E+01    9.86102E-03
 1.15000E+01    9.38289E-03
 1.20000E+01    8.93660E-03
 1.25000E+01    8.51514E-03
 1.30000E+01    8.12278E-03
 1.35000E+01    7.75827E-03
 1.40000E+01    7.41894E-03
 1.45000E+01    7.10025E-03
 1.50000E+01    6.79759E-03
 1.55000E+01    6.51061E-03
 1.60000E+01    6.23520E-03
 1.65000E+01    5.97136E-03
 1.70000E+01    5.71612E-03
 1.75000E+01    5.47393E-03
 1.80000E+01    5.24258E-03
 1.85000E+01    5.02437E-03
 1.90000E+01    4.82029E-03
 1.95000E+01    4.62959E-03
 2.00000E+01    4.45199E-03
