# n + Xe129 : (n,xn)    
# jendl4.0   S.Kunieda, A.Ichihara, K.Shibata+ EVAL-FEB22
# 
# # energies =    78
#   E(MeV)        xs(mb) 
 3.98877E-02    0.00000E+00
 4.00000E-02    5.89600E+01
 5.00000E-02    3.50900E+02
 6.00000E-02    4.62600E+02
 7.00000E-02    5.37000E+02
 8.00000E-02    5.92400E+02
 9.00000E-02    6.35200E+02
 1.00000E-01    6.68800E+02
 1.20000E-01    7.17400E+02
 1.40000E-01    7.50200E+02
 1.60000E-01    7.72700E+02
 1.80000E-01    7.88500E+02
 2.00000E-01    8.00000E+02
 2.37988E-01    8.12688E+02
 2.50000E-01    8.16707E+02
 2.76426E-01    8.20337E+02
 3.00000E-01    8.30392E+02
 3.20669E-01    8.06551E+02
 3.24228E-01    8.17421E+02
 3.50000E-01    9.65328E+02
 4.00000E-01    1.08094E+03
 4.14716E-01    1.08810E+03
 4.45660E-01    1.18358E+03
 4.50000E-01    1.21537E+03
 5.00000E-01    1.31036E+03
 5.22759E-01    1.32023E+03
 5.29370E-01    1.32770E+03
 5.50000E-01    1.38411E+03
 5.77161E-01    1.52969E+03
 5.93138E-01    1.63671E+03
 6.00000E-01    1.70661E+03
 6.03216E-01    1.70972E+03
 6.50000E-01    1.75501E+03
 7.00000E-01    1.81295E+03
 7.50000E-01    1.83863E+03
 8.00000E-01    1.88739E+03
 8.50000E-01    1.90771E+03
 9.00000E-01    1.95129E+03
 9.50000E-01    1.96959E+03
 1.00000E+00    2.00831E+03
 1.20000E+00    2.10394E+03
 1.40000E+00    2.17525E+03
 1.60000E+00    2.21413E+03
 1.80000E+00    2.24011E+03
 2.00000E+00    2.25448E+03
 2.20000E+00    2.26446E+03
 2.40000E+00    2.27643E+03
 2.60000E+00    2.29443E+03
 2.80000E+00    2.31903E+03
 3.00000E+00    2.34777E+03
 3.25000E+00    2.38561E+03
 3.50000E+00    2.42049E+03
 3.75000E+00    2.44847E+03
 4.00000E+00    2.46738E+03
 4.25000E+00    2.47653E+03
 4.50000E+00    2.47546E+03
 4.75000E+00    2.46465E+03
 5.00000E+00    2.44550E+03
 5.50000E+00    2.39108E+03
 6.00000E+00    2.33107E+03
 6.50000E+00    2.27894E+03
 7.00000E+00    2.23987E+03
 7.50000E+00    2.27840E+03
 8.00000E+00    2.47735E+03
 8.50000E+00    2.77033E+03
 9.00000E+00    3.07317E+03
 9.50000E+00    3.33451E+03
 1.00000E+01    3.53183E+03
 1.10000E+01    3.77390E+03
 1.20000E+01    3.88742E+03
 1.30000E+01    3.92683E+03
 1.40000E+01    3.92747E+03
 1.50000E+01    3.90957E+03
 1.60000E+01    3.88472E+03
 1.70000E+01    3.86016E+03
 1.80000E+01    3.87217E+03
 1.90000E+01    4.01040E+03
 2.00000E+01    4.21873E+03
