# n + Xe  0 : (n,xa)
# jendl.ad   kunieda                           EVAL-Mar14
#
# # energies =    85
#   E(MeV)          xs(mb) 
 1.50000E-01    8.28058E-07
 2.00000E-01    8.44505E-07
 3.00000E-01    1.11211E-06
 4.00000E-01    1.28361E-06
 4.46403E-01    1.22679E-06
 5.00000E-01    1.33840E-06
 6.00000E-01    1.69723E-06
 7.00000E-01    2.26549E-06
 8.00000E-01    3.07402E-06
 9.00000E-01    4.16433E-06
 9.77120E-01    5.23999E-06
 1.00000E+00    5.56428E-06
 1.04130E+00    6.57364E-06
 1.20000E+00    1.04522E-05
 1.40000E+00    1.89146E-05
 1.44083E+00    2.19968E-05
 1.59545E+00    3.36690E-05
 1.60000E+00    3.40125E-05
 1.61605E+00    3.61016E-05
 1.61606E+00    3.61029E-05
 1.75074E+00    5.36339E-05
 1.80000E+00    6.00459E-05
 1.89212E+00    8.04707E-05
 2.00000E+00    1.04390E-04
 2.01230E+00    1.08919E-04
 2.01542E+00    1.10068E-04
 2.14383E+00    1.57347E-04
 2.20000E+00    1.78028E-04
 2.24661E+00    2.05508E-04
 2.27066E+00    2.19687E-04
 2.29077E+00    2.31543E-04
 2.29889E+00    2.36331E-04
 2.38042E+00    2.84400E-04
 2.38043E+00    2.84406E-04
 2.40000E+00    2.95944E-04
 2.44017E+00    3.36133E-04
 2.44986E+00    3.45828E-04
 2.46319E+00    3.59165E-04
 2.50209E+00    3.98084E-04
 2.52049E+00    4.16494E-04
 2.53051E+00    4.26519E-04
 2.53235E+00    4.28360E-04
 2.54125E+00    4.37265E-04
 2.57078E+00    4.66811E-04
 2.58501E+00    4.81048E-04
 2.60354E+00    4.99589E-04
 2.61201E+00    5.08064E-04
 2.61907E+00    5.15128E-04
 2.65376E+00    5.49838E-04
 2.70000E+00    5.96107E-04
 3.00000E+00    1.08400E-03
 3.50000E+00    2.36964E-03
 4.00000E+00    4.13117E-03
 4.50000E+00    6.59630E-03
 5.00000E+00    9.14145E-03
 5.50000E+00    1.32309E-02
 6.00000E+00    1.80708E-02
 6.50000E+00    2.34496E-02
 7.00000E+00    3.10090E-02
 7.50000E+00    4.06366E-02
 8.00000E+00    5.41853E-02
 8.50000E+00    7.34558E-02
 9.00000E+00    1.02483E-01
 9.50000E+00    1.42747E-01
 1.00000E+01    2.00233E-01
 1.05000E+01    2.74743E-01
 1.10000E+01    3.75589E-01
 1.15000E+01    4.96919E-01
 1.20000E+01    6.43713E-01
 1.25000E+01    8.14128E-01
 1.30000E+01    1.01132E+00
 1.35000E+01    1.22509E+00
 1.40000E+01    1.46412E+00
 1.45000E+01    1.72003E+00
 1.50000E+01    1.98799E+00
 1.55000E+01    2.26917E+00
 1.60000E+01    2.56089E+00
 1.65000E+01    2.85610E+00
 1.70000E+01    3.15840E+00
 1.75000E+01    3.46144E+00
 1.80000E+01    3.76133E+00
 1.85000E+01    4.06179E+00
 1.90000E+01    4.35681E+00
 1.95000E+01    4.64971E+00
 2.00000E+01    4.93506E+00
