# n + Ga 69 : (n,tot)   
# jendl4.0   T.WATANABE                        EVAL-MAR94
# uncertainties: n
# # energies =   171
#   E(MeV)       xs(mb) 
 1.00000E-11    3.98877E+04
 1.00000E-07    8.96118E+03
 4.13990E-07    8.67298E+03
 5.31580E-07    8.61089E+03
 6.82560E-07    8.55571E+03
 8.76420E-07    8.50660E+03
 1.12540E-06    8.46315E+03
 1.44500E-06    8.42583E+03
 1.85540E-06    8.38770E+03
 2.37240E-06    8.35820E+03
 3.05900E-06    8.32158E+03
 3.92790E-06    8.29072E+03
 5.04350E-06    8.26199E+03
 6.47600E-06    8.22511E+03
 8.31530E-06    8.18916E+03
 1.06770E-05    8.15359E+03
 1.37100E-05    8.10791E+03
 1.76030E-05    8.04940E+03
 2.26030E-05    7.97944E+03
 2.92030E-05    7.89422E+03
 3.72670E-05    7.78616E+03
 4.78510E-05    7.64418E+03
 6.14420E-05    7.42119E+03
 7.88930E-05    6.95859E+03
 1.01300E-04    6.56777E+04
 1.30070E-04    8.03051E+03
 1.67020E-04    7.38556E+03
 2.14450E-04    6.90731E+03
 2.75360E-04    2.01933E+04
 3.53580E-04    6.75144E+03
 4.54000E-04    1.08504E+04
 5.82950E-04    3.34808E+04
 7.48520E-04    7.08173E+03
 9.61120E-04    5.74804E+03
 1.23410E-03    1.07792E+04
 1.58460E-03    2.76475E+04
 2.03470E-03    5.86268E+03
 2.24870E-03    3.12787E+04
 2.48520E-03    1.37046E+04
 2.61260E-03    7.43621E+03
 2.74650E-03    5.97702E+03
 3.03540E-03    6.36221E+03
 3.35460E-03    4.67747E+04
 3.70740E-03    9.06448E+03
 4.30740E-03    1.73298E+04
 5.53080E-03    1.43118E+04
 7.10170E-03    1.15854E+04
 9.11880E-03    1.09190E+04
 1.17090E-02    1.03651E+04
 1.50340E-02    9.84602E+03
 1.93050E-02    9.47313E+03
 2.18750E-02    9.28008E+03
 2.35790E-02    9.18507E+03
 2.41760E-02    9.13828E+03
 2.47880E-02    9.07193E+03
 2.60580E-02    9.00233E+03
 2.70000E-02    8.93010E+03
 2.85000E-02    8.79920E+03
 3.18280E-02    8.65403E+03
 3.43070E-02    8.46190E+03
 4.08680E-02    8.23667E+03
 4.63090E-02    8.05412E+03
 5.24750E-02    7.91350E+03
 5.65620E-02    7.74299E+03
 6.73790E-02    7.58109E+03
 7.20000E-02    7.46973E+03
 7.95000E-02    7.37939E+03
 8.25000E-02    7.32329E+03
 8.65170E-02    7.21091E+03
 9.80370E-02    7.04378E+03
 1.11090E-01    6.92022E+03
 1.16790E-01    6.85049E+03
 1.22770E-01    6.78133E+03
 1.29070E-01    6.71303E+03
 1.35690E-01    6.64529E+03
 1.42640E-01    6.57821E+03
 1.49960E-01    6.51186E+03
 1.57640E-01    6.44640E+03
 1.65730E-01    6.38137E+03
 1.74220E-01    6.31689E+03
 1.83160E-01    6.25333E+03
 1.92550E-01    6.18987E+03
 2.02420E-01    6.11735E+03
 2.12800E-01    6.04147E+03
 2.23710E-01    5.96650E+03
 2.35180E-01    5.89250E+03
 2.47240E-01    5.78353E+03
 2.73240E-01    5.67619E+03
 2.87250E-01    5.62333E+03
 2.94520E-01    5.59958E+03
 2.97200E-01    5.59010E+03
 2.98500E-01    5.57859E+03
 3.01970E-01    5.49239E+03
 3.33730E-01    5.33287E+03
 3.68830E-01    5.21420E+03
 3.87740E-01    5.13608E+03
 4.07620E-01    5.01099E+03
 4.50490E-01    4.84674E+03
 4.97870E-01    4.72375E+03
 5.23400E-01    4.63842E+03
 5.50230E-01    4.55481E+03
 5.78440E-01    4.47121E+03
 6.08100E-01    4.38522E+03
 6.39280E-01    4.30010E+03
 6.72060E-01    4.21651E+03
 7.06510E-01    4.13208E+03
 7.42740E-01    4.04799E+03
 7.80820E-01    3.96544E+03
 8.20850E-01    3.88310E+03
 8.62940E-01    3.80225E+03
 9.07180E-01    3.71627E+03
 9.61640E-01    3.63851E+03
 1.00260E+00    3.53500E+03
 1.10800E+00    3.42741E+03
 1.16480E+00    3.36153E+03
 1.22460E+00    3.30056E+03
 1.28730E+00    3.23841E+03
 1.35340E+00    3.18210E+03
 1.42270E+00    3.13370E+03
 1.49570E+00    3.08697E+03
 1.57240E+00    3.05166E+03
 1.65300E+00    3.02056E+03
 1.73770E+00    2.99291E+03
 1.82680E+00    2.97810E+03
 1.92050E+00    2.96689E+03
 2.01900E+00    2.96944E+03
 2.12250E+00    2.97937E+03
 2.23130E+00    2.99254E+03
 2.30690E+00    3.00491E+03
 2.34570E+00    3.01229E+03
 2.36530E+00    3.01728E+03
 2.38520E+00    3.02993E+03
 2.46600E+00    3.06366E+03
 2.59240E+00    3.11209E+03
 2.72530E+00    3.16301E+03
 2.86500E+00    3.21654E+03
 3.01190E+00    3.27270E+03
 3.16640E+00    3.33166E+03
 3.32870E+00    3.42615E+03
 3.67880E+00    3.55403E+03
 4.06570E+00    3.65841E+03
 4.49330E+00    3.72713E+03
 4.72370E+00    3.77599E+03
 4.96590E+00    3.81548E+03
 5.22050E+00    3.84119E+03
 5.48810E+00    3.86641E+03
 5.76950E+00    3.89286E+03
 6.06530E+00    3.90780E+03
 6.37630E+00    3.91269E+03
 6.59240E+00    3.91573E+03
 6.70320E+00    3.91972E+03
 7.04690E+00    3.91197E+03
 7.40820E+00    3.89511E+03
 7.78800E+00    3.87646E+03
 8.18730E+00    3.84381E+03
 8.60710E+00    3.80523E+03
 9.04840E+00    3.76000E+03
 9.51230E+00    3.70657E+03
 1.00000E+01    3.64645E+03
 1.05130E+01    3.58186E+03
 1.10520E+01    3.51174E+03
 1.16180E+01    3.44148E+03
 1.22140E+01    3.36672E+03
 1.28400E+01    3.28978E+03
 1.34990E+01    3.23072E+03
 1.38400E+01    3.19178E+03
 1.41910E+01    3.15303E+03
 1.45500E+01    3.11538E+03
 1.49180E+01    3.06249E+03
 1.56830E+01    2.99800E+03
 1.64870E+01    2.94456E+03
