# n + Sr 87 : (n,xa)    
# jendl4.0   K.Shibata, A.Ichihara, S.Kunieda  EVAL-AUG09
# 
# # energies =    59
#   E(MeV)        xs(mb) 
 3.93041E-01    0.00000E+00
 4.00000E-01    0.00000E+00
 5.00000E-01    0.00000E+00
 6.00000E-01    0.00000E+00
 7.00000E-01    0.00000E+00
 8.00000E-01    0.00000E+00
 8.83478E-01    0.00000E+00
 9.00000E-01    0.00000E+00
 1.00000E+00    0.00000E+00
 1.24268E+00    0.00000E+00
 1.26850E+00    0.00000E+00
 1.50000E+00    0.00000E+00
 1.76019E+00    0.00000E+00
 1.76222E+00    0.00000E+00
 1.79102E+00    0.00000E+00
 1.94278E+00    0.00000E+00
 2.00000E+00    0.00000E+00
 2.13455E+00    0.00000E+00
 2.17849E+00    0.00000E+00
 2.19459E+00    0.00000E+00
 2.26165E+00    0.00000E+00
 2.28825E+00    0.00000E+00
 2.44254E+00    0.00000E+00
 2.44849E+00    0.00000E+00
 2.50000E+00    0.00000E+00
 2.51688E+00    1.26131E-06
 2.56220E+00    4.64853E-06
 2.56574E+00    4.91311E-06
 2.56847E+00    5.11731E-06
 2.57960E+00    5.94894E-06
 2.58465E+00    6.32696E-06
 2.62613E+00    9.42688E-06
 2.63625E+00    1.01830E-05
 3.00000E+00    3.73700E-05
 3.50000E+00    2.26100E-04
 4.00000E+00    1.90400E-03
 4.50000E+00    3.90800E-03
 5.00000E+00    8.31600E-03
 5.50000E+00    1.29200E-02
 6.00000E+00    1.93200E-02
 6.50000E+00    2.70200E-02
 7.00000E+00    5.25000E-02
 7.50000E+00    8.45200E-02
 8.00000E+00    8.19600E-02
 8.50000E+00    9.70200E-02
 9.00000E+00    1.36700E-01
 9.50000E+00    1.60100E-01
 1.00000E+01    2.28200E-01
 1.10000E+01    3.65500E-01
 1.20000E+01    5.64000E-01
 1.30000E+01    7.68100E-01
 1.40000E+01    1.14316E+00
 1.45000E+01    1.37900E+00
 1.50000E+01    1.59851E+00
 1.60000E+01    2.10802E+00
 1.70000E+01    2.64990E+00
 1.80000E+01    3.20490E+00
 1.90000E+01    3.75320E+00
 2.00000E+01    4.27600E+00
