# n + Sr 87 : (n,xp)    
# jendl4.0   K.Shibata, A.Ichihara, S.Kunieda  EVAL-AUG09
# 
# # energies =    59
#   E(MeV)        xs(mb) 
 3.93041E-01    0.00000E+00
 4.00000E-01    0.00000E+00
 5.00000E-01    0.00000E+00
 6.00000E-01    0.00000E+00
 7.00000E-01    0.00000E+00
 8.00000E-01    0.00000E+00
 8.83478E-01    0.00000E+00
 9.00000E-01    0.00000E+00
 1.00000E+00    0.00000E+00
 1.24268E+00    1.01488E-03
 1.26850E+00    1.12288E-03
 1.50000E+00    2.09100E-03
 1.76019E+00    2.61896E-02
 1.76222E+00    2.63771E-02
 1.79102E+00    2.90445E-02
 1.94278E+00    4.31003E-02
 2.00000E+00    4.84000E-02
 2.13455E+00    9.79678E-02
 2.17849E+00    1.14157E-01
 2.19459E+00    1.20086E-01
 2.26165E+00    1.44791E-01
 2.28825E+00    1.54592E-01
 2.44254E+00    2.11433E-01
 2.44849E+00    2.13624E-01
 2.50000E+00    2.32600E-01
 2.51688E+00    2.44423E-01
 2.56220E+00    2.76175E-01
 2.56574E+00    2.78655E-01
 2.56847E+00    2.80569E-01
 2.57960E+00    2.88364E-01
 2.58465E+00    2.91908E-01
 2.62613E+00    3.20966E-01
 2.63625E+00    3.28053E-01
 3.00000E+00    5.82900E-01
 3.50000E+00    1.00400E+00
 4.00000E+00    1.46800E+00
 4.50000E+00    1.81700E+00
 5.00000E+00    2.03800E+00
 5.50000E+00    2.20800E+00
 6.00000E+00    2.44500E+00
 6.50000E+00    2.84100E+00
 7.00000E+00    3.34000E+00
 7.50000E+00    3.93100E+00
 8.00000E+00    5.08800E+00
 8.50000E+00    6.17800E+00
 9.00000E+00    8.04600E+00
 9.50000E+00    9.59200E+00
 1.00000E+01    1.21000E+01
 1.10000E+01    1.73200E+01
 1.20000E+01    2.34216E+01
 1.30000E+01    3.02166E+01
 1.40000E+01    3.78109E+01
 1.45000E+01    4.14870E+01
 1.50000E+01    4.62600E+01
 1.60000E+01    5.52640E+01
 1.70000E+01    6.35800E+01
 1.80000E+01    7.25700E+01
 1.90000E+01    8.14800E+01
 2.00000E+01    9.01300E+01
