# n + Y  89 : (n,xp)    
# jendl4.0   A.Ichihara, K.Shibata, S.Kunieda+ EVAL-OCT09
# 
# # energies =    85
#   E(MeV)        xs(mb) 
 9.19283E-01    0.00000E+00
 1.00000E+00    0.00000E+00
 1.10000E+00    0.00000E+00
 1.20000E+00    0.00000E+00
 1.30000E+00    0.00000E+00
 1.40000E+00    0.00000E+00
 1.50000E+00    0.00000E+00
 1.52436E+00    0.00000E+00
 1.60000E+00    0.00000E+00
 1.70000E+00    0.00000E+00
 1.76436E+00    0.00000E+00
 1.80000E+00    0.00000E+00
 1.90000E+00    0.00000E+00
 2.00000E+00    0.00000E+00
 2.10000E+00    0.00000E+00
 2.20000E+00    0.00000E+00
 2.24760E+00    0.00000E+00
 2.30000E+00    0.00000E+00
 2.40000E+00    0.00000E+00
 2.50000E+00    0.00000E+00
 2.55857E+00    2.79272E-03
 2.59536E+00    4.54653E-03
 2.60000E+00    4.76800E-03
 2.65179E+00    7.23725E-03
 2.70000E+00    9.53600E-03
 2.80000E+00    1.75220E-02
 2.90000E+00    2.87260E-02
 2.90438E+00    2.92169E-02
 2.91389E+00    3.02820E-02
 2.92754E+00    3.18117E-02
 3.00000E+00    3.99300E-02
 3.10000E+00    7.55440E-02
 3.10240E+00    7.63998E-02
 3.14231E+00    9.06127E-02
 3.17451E+00    1.02081E-01
 3.20000E+00    1.11158E-01
 3.28434E+00    1.41196E-01
 3.30000E+00    1.46772E-01
 3.38101E+00    1.75622E-01
 3.40000E+00    1.82386E-01
 3.44919E+00    1.99906E-01
 3.49036E+00    2.14565E-01
 3.50000E+00    2.18000E-01
 3.54335E+00    2.49393E-01
 3.55549E+00    2.58183E-01
 3.59746E+00    2.88578E-01
 3.60000E+00    2.90420E-01
 3.60039E+00    2.90702E-01
 3.66208E+00    3.35379E-01
 3.67149E+00    3.42191E-01
 3.70000E+00    3.62840E-01
 3.75745E+00    4.04446E-01
 3.79022E+00    4.28177E-01
 3.79528E+00    4.31839E-01
 3.80000E+00    4.35260E-01
 3.89176E+00    5.01711E-01
 3.90000E+00    5.07680E-01
 3.90612E+00    5.12111E-01
 3.96852E+00    5.57301E-01
 4.00000E+00    5.80100E-01
 4.02202E+00    6.03480E-01
 4.03689E+00    6.19266E-01
 4.06085E+00    6.44716E-01
 4.06500E+00    6.49117E-01
 4.06844E+00    6.52770E-01
 4.07855E+00    6.63508E-01
 4.50000E+00    1.11100E+00
 5.00000E+00    1.73300E+00
 5.50000E+00    2.26300E+00
 6.00000E+00    2.62500E+00
 7.00000E+00    3.03300E+00
 8.00000E+00    3.54600E+00
 9.00000E+00    4.70200E+00
 1.00000E+01    1.06930E+01
 1.10000E+01    4.17800E+01
 1.16000E+01    7.09880E+01
 1.20000E+01    9.04600E+01
 1.30000E+01    9.24600E+01
 1.40000E+01    7.73800E+01
 1.50000E+01    6.70300E+01
 1.60000E+01    6.47300E+01
 1.70000E+01    6.77600E+01
 1.80000E+01    7.37200E+01
 1.90000E+01    8.14600E+01
 2.00000E+01    8.99300E+01
