# n + Xe131 : (n,tot)   
# jendl.ad   kunieda                           EVAL-Mar14
# uncertainties: n
# # energies =    69
#   E(MeV)       xs(mb) 
 1.00000E-10    6.94359E+05
 5.00000E-09    1.89174E+05
 1.00000E-08    1.43337E+05
 1.50000E-08    1.20491E+05
 2.00000E-08    1.06060E+05
 2.50000E-08    9.58754E+04
 3.00000E-08    8.81674E+04
 3.50000E-08    8.10969E+04
 4.20000E-08    7.42276E+04
 5.00000E-08    6.85306E+04
 5.80000E-08    6.37485E+04
 6.70000E-08    5.88911E+04
 8.00000E-08    5.33665E+04
 1.00000E-07    4.65533E+04
 1.40000E-07    4.03323E+04
 1.80000E-07    3.61497E+04
 2.20000E-07    3.34029E+04
 2.50000E-07    3.15442E+04
 2.80000E-07    3.02145E+04
 3.00000E-07    2.92774E+04
 3.20000E-07    2.82379E+04
 3.50000E-07    2.68101E+04
 4.00000E-07    2.47111E+04
 5.00000E-07    2.23589E+04
 6.25000E-07    2.02915E+04
 7.80000E-07    1.90049E+04
 8.50000E-07    1.84108E+04
 9.10000E-07    1.80112E+04
 9.50000E-07    1.77772E+04
 9.72000E-07    1.76041E+04
 9.96000E-07    1.74324E+04
 1.02000E-06    1.72739E+04
 1.04500E-06    1.71094E+04
 1.07100E-06    1.69508E+04
 1.09700E-06    1.68036E+04
 1.12300E-06    1.66538E+04
 1.15000E-06    1.62098E+04
 1.30000E-06    1.54683E+04
 1.50000E-06    1.43522E+04
 2.10000E-06    1.33980E+04
 2.60000E-06    1.31649E+04
 3.30000E-06    1.29265E+04
 4.00000E-06    1.84602E+04
 9.87700E-06    1.66862E+06
 1.59680E-05    3.53635E+04
 2.77000E-05    2.33249E+04
 4.80520E-05    4.26775E+03
 7.55014E-05    1.14973E+04
 1.48728E-04    6.75039E+03
 3.67262E-04    4.33011E+03
 9.06898E-04    1.55968E+03
 1.42510E-03    2.53605E+03
 2.23945E-03    1.58603E+03
 3.51910E-03    1.22619E+03
 5.53000E-03    9.46726E+02
 9.11800E-03    7.24648E+02
 1.50300E-02    5.47852E+02
 2.47800E-02    4.05018E+02
 4.08500E-02    2.94381E+02
 6.73400E-02    2.10404E+02
 1.11000E-01    1.50482E+02
 1.83000E-01    1.14633E+02
 3.02000E-01    7.51706E+01
 5.00000E-01    3.75907E+01
 8.21000E-01    2.19040E+01
 1.35300E+00    1.42244E+01
 2.23100E+00    8.87311E+00
 3.67900E+00    3.89071E+00
 6.06500E+00    1.77559E+03
