# n + Xe131 : (n,xd)    
# jendl.ad   kunieda                           EVAL-Mar14
# 
# # energies =    67
#   E(MeV)        xs(mb) 
 8.08029E-02    0.00000E+00
 9.00000E-02    0.00000E+00
 1.00000E-01    0.00000E+00
 1.32597E-01    0.00000E+00
 1.65193E-01    0.00000E+00
 2.00000E-01    0.00000E+00
 3.00000E-01    0.00000E+00
 3.43774E-01    0.00000E+00
 3.67298E-01    0.00000E+00
 3.67299E-01    0.00000E+00
 4.00000E-01    0.00000E+00
 4.07934E-01    0.00000E+00
 5.00000E-01    0.00000E+00
 5.69545E-01    0.00000E+00
 6.00000E-01    0.00000E+00
 6.41899E-01    0.00000E+00
 6.72073E-01    0.00000E+00
 7.00000E-01    0.00000E+00
 7.05293E-01    0.00000E+00
 7.28479E-01    0.00000E+00
 8.00000E-01    0.00000E+00
 8.12140E-01    0.00000E+00
 9.00000E-01    0.00000E+00
 1.00000E+00    0.00000E+00
 1.20000E+00    0.00000E+00
 1.40000E+00    0.00000E+00
 1.60000E+00    0.00000E+00
 1.80000E+00    0.00000E+00
 2.00000E+00    0.00000E+00
 2.20000E+00    0.00000E+00
 2.40000E+00    0.00000E+00
 2.70000E+00    0.00000E+00
 3.00000E+00    0.00000E+00
 3.50000E+00    0.00000E+00
 4.00000E+00    0.00000E+00
 4.50000E+00    0.00000E+00
 5.00000E+00    0.00000E+00
 5.50000E+00    0.00000E+00
 6.00000E+00    0.00000E+00
 6.50000E+00    0.00000E+00
 7.00000E+00    9.19621E-15
 7.50000E+00    2.10156E-14
 8.00000E+00    3.28350E-14
 8.50000E+00    8.90630E-11
 9.00000E+00    2.06600E-08
 9.50000E+00    1.04419E-06
 1.00000E+01    2.16701E-05
 1.05000E+01    1.58094E-04
 1.10000E+01    9.37804E-04
 1.15000E+01    4.64415E-03
 1.20000E+01    1.93530E-02
 1.25000E+01    5.79132E-02
 1.30000E+01    1.27524E-01
 1.35000E+01    3.00763E-01
 1.40000E+01    5.52699E-01
 1.45000E+01    8.49109E-01
 1.50000E+01    1.24246E+00
 1.55000E+01    1.74039E+00
 1.60000E+01    2.34677E+00
 1.65000E+01    3.06278E+00
 1.70000E+01    3.88757E+00
 1.75000E+01    4.81898E+00
 1.80000E+01    5.85432E+00
 1.85000E+01    6.69401E+00
 1.90000E+01    7.25771E+00
 1.95000E+01    8.50494E+00
 2.00000E+01    9.49621E+00
