# n + Xe131 : (n,xa)    
# jendl.ad   kunieda                           EVAL-Mar14
# 
# # energies =    67
#   E(MeV)        xs(mb) 
 8.08029E-02    0.00000E+00
 9.00000E-02    0.00000E+00
 1.00000E-01    0.00000E+00
 1.32597E-01    0.00000E+00
 1.65193E-01    0.00000E+00
 2.00000E-01    0.00000E+00
 3.00000E-01    0.00000E+00
 3.43774E-01    0.00000E+00
 3.67298E-01    0.00000E+00
 3.67299E-01    8.84383E-16
 4.00000E-01    2.94070E-11
 4.07934E-01    1.28860E-10
 5.00000E-01    1.87160E-09
 5.69545E-01    1.28310E-08
 6.00000E-01    1.81550E-08
 6.41899E-01    2.85030E-08
 6.72073E-01    3.74740E-08
 7.00000E-01    4.67830E-08
 7.05293E-01    4.86690E-08
 7.28479E-01    5.45100E-08
 8.00000E-01    7.90580E-08
 8.12140E-01    8.46920E-08
 9.00000E-01    1.37170E-07
 1.00000E+00    2.25730E-07
 1.20000E+00    5.40390E-07
 1.40000E+00    1.37797E-06
 1.60000E+00    3.16031E-06
 1.80000E+00    6.91890E-06
 2.00000E+00    1.46701E-05
 2.20000E+00    3.08611E-05
 2.40000E+00    6.39490E-05
 2.70000E+00    1.82658E-04
 3.00000E+00    4.52112E-04
 3.50000E+00    1.25704E-03
 4.00000E+00    2.44402E-03
 4.50000E+00    4.03958E-03
 5.00000E+00    5.82482E-03
 5.50000E+00    8.79991E-03
 6.00000E+00    1.30349E-02
 6.50000E+00    1.71409E-02
 7.00000E+00    2.26870E-02
 7.50000E+00    3.10242E-02
 8.00000E+00    4.10973E-02
 8.50000E+00    5.51010E-02
 9.00000E+00    8.03724E-02
 9.50000E+00    1.11495E-01
 1.00000E+01    1.61164E-01
 1.05000E+01    2.31502E-01
 1.10000E+01    3.26680E-01
 1.15000E+01    4.57413E-01
 1.20000E+01    6.09816E-01
 1.25000E+01    8.04416E-01
 1.30000E+01    1.02908E+00
 1.35000E+01    1.27416E+00
 1.40000E+01    1.54921E+00
 1.45000E+01    1.84551E+00
 1.50000E+01    2.15540E+00
 1.55000E+01    2.47174E+00
 1.60000E+01    2.79953E+00
 1.65000E+01    3.13342E+00
 1.70000E+01    3.46554E+00
 1.75000E+01    3.79794E+00
 1.80000E+01    4.11852E+00
 1.85000E+01    4.44028E+00
 1.90000E+01    4.75118E+00
 1.95000E+01    5.05220E+00
 2.00000E+01    5.34750E+00
