# n + Xe131 : (n,xn)    
# jendl.ad   kunieda                           EVAL-Mar14
# 
# # energies =    67
#   E(MeV)        xs(mb) 
 8.08029E-02    0.00000E+00
 9.00000E-02    8.35728E+01
 1.00000E-01    1.12943E+02
 1.32597E-01    1.51930E+02
 1.65193E-01    1.90918E+02
 2.00000E-01    2.12572E+02
 3.00000E-01    2.50773E+02
 3.43774E-01    2.64442E+02
 3.67298E-01    2.80676E+02
 3.67299E-01    2.80676E+02
 4.00000E-01    3.96777E+02
 4.07934E-01    4.12091E+02
 5.00000E-01    6.35447E+02
 5.69545E-01    7.13322E+02
 6.00000E-01    7.52409E+02
 6.41899E-01    7.92402E+02
 6.72073E-01    8.32303E+02
 7.00000E-01    8.71930E+02
 7.05293E-01    8.77921E+02
 7.28479E-01    9.19170E+02
 8.00000E-01    1.02178E+03
 8.12140E-01    1.03454E+03
 9.00000E-01    1.11092E+03
 1.00000E+00    1.18798E+03
 1.20000E+00    1.33831E+03
 1.40000E+00    1.46729E+03
 1.60000E+00    1.57183E+03
 1.80000E+00    1.65482E+03
 2.00000E+00    1.72229E+03
 2.20000E+00    1.78095E+03
 2.40000E+00    1.83696E+03
 2.70000E+00    1.92549E+03
 3.00000E+00    2.02452E+03
 3.50000E+00    2.18859E+03
 4.00000E+00    2.29802E+03
 4.50000E+00    2.33003E+03
 5.00000E+00    2.30654E+03
 5.50000E+00    2.25640E+03
 6.00000E+00    2.19880E+03
 6.50000E+00    2.14866E+03
 7.00000E+00    2.14263E+03
 7.50000E+00    2.25137E+03
 8.00000E+00    2.47698E+03
 8.50000E+00    2.76061E+03
 9.00000E+00    3.02679E+03
 9.50000E+00    3.27100E+03
 1.00000E+01    3.46105E+03
 1.05000E+01    3.60614E+03
 1.10000E+01    3.70455E+03
 1.15000E+01    3.76953E+03
 1.20000E+01    3.80260E+03
 1.25000E+01    3.82800E+03
 1.30000E+01    3.83261E+03
 1.35000E+01    3.83444E+03
 1.40000E+01    3.82702E+03
 1.45000E+01    3.81694E+03
 1.50000E+01    3.80927E+03
 1.55000E+01    3.80213E+03
 1.60000E+01    3.79428E+03
 1.65000E+01    3.79769E+03
 1.70000E+01    3.79328E+03
 1.75000E+01    3.82523E+03
 1.80000E+01    3.88441E+03
 1.85000E+01    4.00093E+03
 1.90000E+01    4.13239E+03
 1.95000E+01    4.26395E+03
 2.00000E+01    4.39551E+03
