# n + La137 : (n,xa)    
# jendl.ad   N.Iwamoto                         EVAL-Apr14
# 
# # energies =    91
#   E(MeV)        xs(mb) 
 1.06680E-02    2.52811E-06
 2.00000E-02    1.62447E-06
 3.00000E-02    1.28758E-06
 4.00000E-02    1.10173E-06
 5.00000E-02    9.96076E-07
 6.00000E-02    9.27882E-07
 7.00000E-02    8.81790E-07
 8.00000E-02    8.52758E-07
 9.00000E-02    8.33325E-07
 1.00000E-01    8.19480E-07
 1.05000E-01    8.19345E-07
 1.10000E-01    8.19210E-07
 1.20000E-01    8.23678E-07
 1.30000E-01    8.29913E-07
 1.40000E-01    8.37470E-07
 1.50000E-01    8.48258E-07
 1.60000E-01    8.66024E-07
 1.70000E-01    8.88039E-07
 1.80000E-01    9.11052E-07
 1.90000E-01    9.35881E-07
 2.00000E-01    9.61834E-07
 2.25000E-01    1.03029E-06
 2.50000E-01    1.10384E-06
 2.75000E-01    1.22428E-06
 3.00000E-01    1.34748E-06
 4.00000E-01    1.96480E-06
 4.50464E-01    2.47023E-06
 4.50465E-01    2.47024E-06
 4.96723E-01    2.95502E-06
 5.00000E-01    2.98227E-06
 6.00000E-01    4.35689E-06
 6.46690E-01    5.22701E-06
 7.00000E-01    6.64614E-06
 7.14526E-01    7.06595E-06
 7.67886E-01    8.92402E-06
 7.87328E-01    8.88701E-06
 8.00000E-01    8.97695E-06
 8.41525E-01    9.81519E-06
 9.00000E-01    1.09956E-05
 9.24199E-01    1.16978E-05
 9.33155E-01    1.18024E-05
 1.00000E+00    1.37980E-05
 1.01202E+00    1.42726E-05
 1.10000E+00    1.79529E-05
 1.20000E+00    2.39030E-05
 1.30000E+00    3.12868E-05
 1.40000E+00    4.07503E-05
 1.50000E+00    5.30554E-05
 1.60000E+00    6.89945E-05
 1.70000E+00    8.91933E-05
 1.80000E+00    1.14895E-04
 1.90000E+00    1.47427E-04
 2.00000E+00    1.88699E-04
 2.25000E+00    3.28940E-04
 2.50000E+00    6.05645E-04
 2.75000E+00    1.00291E-03
 3.00000E+00    1.74258E-03
 3.50000E+00    4.29404E-03
 4.00000E+00    9.31681E-03
 4.50000E+00    1.80604E-02
 5.00000E+00    3.19391E-02
 5.50000E+00    5.23350E-02
 6.00000E+00    8.04147E-02
 6.50000E+00    1.16879E-01
 7.00000E+00    1.54813E-01
 7.50000E+00    2.06598E-01
 8.00000E+00    2.67565E-01
 8.50000E+00    3.39078E-01
 9.00000E+00    4.23151E-01
 9.50000E+00    5.23469E-01
 1.00000E+01    6.40188E-01
 1.05000E+01    7.77936E-01
 1.10000E+01    9.41093E-01
 1.15000E+01    1.13513E+00
 1.20000E+01    1.35975E+00
 1.25000E+01    1.61671E+00
 1.30000E+01    1.90609E+00
 1.35000E+01    2.22781E+00
 1.40000E+01    2.57785E+00
 1.45000E+01    2.95441E+00
 1.50000E+01    3.35638E+00
 1.55000E+01    3.78235E+00
 1.60000E+01    4.22548E+00
 1.65000E+01    4.68427E+00
 1.70000E+01    5.16371E+00
 1.75000E+01    5.64545E+00
 1.80000E+01    6.14421E+00
 1.85000E+01    6.64210E+00
 1.90000E+01    7.15736E+00
 1.95000E+01    7.67401E+00
 2.00000E+01    8.20407E+00
