# n + La137 : (n,d)     
# jendl.ad   N.Iwamoto                         EVAL-Apr14
# uncertainties: n
# # energies =    71
#   E(MeV)       xs(mb) 
 3.30227E+00    0.00000E+00
 4.12680E+00    1.85410E-16
 4.50000E+00    2.69330E-16
 4.86467E+00    4.60140E-12
 4.89290E+00    4.95760E-12
 5.00000E+00    6.30890E-12
 5.18258E+00    8.42270E-10
 5.34770E+00    1.59830E-09
 5.37123E+00    1.70600E-09
 5.39763E+00    1.82690E-09
 5.44679E+00    2.05200E-09
 5.45821E+00    2.10430E-09
 5.45939E+00    2.10970E-09
 5.47169E+00    2.16600E-09
 5.50000E+00    2.29560E-09
 5.52561E+00    7.36680E-09
 5.54135E+00    1.04840E-08
 5.61782E+00    2.56260E-08
 5.63465E+00    2.89590E-08
 5.66908E+00    3.57760E-08
 5.67611E+00    3.71680E-08
 5.69345E+00    4.06020E-08
 5.71068E+00    4.40140E-08
 5.71200E+00    4.42750E-08
 5.71982E+00    4.58240E-08
 5.75109E+00    5.20160E-08
 5.80602E+00    6.28930E-08
 5.85350E+00    7.22950E-08
 5.86543E+00    7.46570E-08
 5.88315E+00    7.81660E-08
 5.90842E+00    8.31700E-08
 5.96244E+00    9.38670E-08
 5.98159E+00    9.76590E-08
 5.98329E+00    9.79950E-08
 6.00000E+00    1.01300E-07
 6.01571E+00    1.39460E-07
 6.01668E+00    1.41820E-07
 6.09625E+00    3.35100E-07
 6.10264E+00    3.50620E-07
 6.10720E+00    3.61700E-07
 6.13490E+00    4.28980E-07
 6.14320E+00    4.49140E-07
 6.16381E+00    4.99200E-07
 6.50000E+00    1.31582E-06
 7.00000E+00    8.02844E-06
 7.50000E+00    3.11924E-05
 8.00000E+00    1.03064E-04
 8.50000E+00    3.79050E-04
 9.00000E+00    1.53996E-03
 9.50000E+00    5.79337E-03
 1.00000E+01    1.85454E-02
 1.05000E+01    4.26503E-02
 1.10000E+01    1.01798E-01
 1.15000E+01    2.11256E-01
 1.20000E+01    3.71827E-01
 1.25000E+01    6.18377E-01
 1.30000E+01    9.45115E-01
 1.35000E+01    1.35072E+00
 1.40000E+01    1.82671E+00
 1.45000E+01    2.36491E+00
 1.50000E+01    2.95501E+00
 1.55000E+01    3.65351E+00
 1.60000E+01    4.33016E+00
 1.65000E+01    4.96692E+00
 1.70000E+01    5.64644E+00
 1.75000E+01    6.35732E+00
 1.80000E+01    7.10294E+00
 1.85000E+01    7.85853E+00
 1.90000E+01    8.49655E+00
 1.95000E+01    9.24910E+00
 2.00000E+01    9.70598E+00
