# n + Eu153 : (n,n'15)  
# jendl4.0   N.Iwamoto                         EVAL-Nov09
# uncertainties: n
# # energies =    80
#   E(MeV)       xs(mb) 
 4.81079E-01    0.00000E+00
 4.84224E-01    3.64913E-01
 5.00000E-01    9.77970E-01
 5.41489E-01    2.38827E+00
 5.56117E-01    2.79938E+00
 5.63431E-01    2.96801E+00
 5.73065E-01    3.17180E+00
 5.88879E-01    3.56878E+00
 5.93227E-01    3.67081E+00
 6.00000E-01    3.83396E+00
 6.21251E-01    4.35043E+00
 6.38806E-01    4.78157E+00
 6.40714E-01    4.82556E+00
 6.45819E-01    4.93630E+00
 6.59018E-01    5.22532E+00
 6.62018E-01    5.28812E+00
 6.86398E-01    5.81496E+00
 6.98764E-01    6.08106E+00
 7.00000E-01    6.10747E+00
 7.06016E-01    6.23945E+00
 7.11290E-01    6.35552E+00
 7.15790E-01    6.45450E+00
 7.17814E-01    6.46284E+00
 7.20897E-01    6.51139E+00
 7.23430E-01    6.55170E+00
 7.37352E-01    6.79839E+00
 7.40855E-01    6.85508E+00
 7.65406E-01    7.26196E+00
 7.68838E-01    7.31935E+00
 8.00000E-01    7.83582E+00
 9.00000E-01    9.19036E+00
 1.00000E+00    9.84245E+00
 1.10000E+00    1.03197E+01
 1.20000E+00    1.03769E+01
 1.30000E+00    1.03266E+01
 1.40000E+00    1.02155E+01
 1.50000E+00    1.00220E+01
 1.60000E+00    9.64285E+00
 1.70000E+00    9.19339E+00
 1.80000E+00    8.69312E+00
 1.90000E+00    8.15835E+00
 2.00000E+00    7.60634E+00
 2.25000E+00    6.36455E+00
 2.50000E+00    5.00244E+00
 2.75000E+00    3.94860E+00
 3.00000E+00    3.05847E+00
 3.50000E+00    1.75069E+00
 4.00000E+00    9.65149E-01
 4.50000E+00    5.32305E-01
 5.00000E+00    3.04358E-01
 5.50000E+00    1.85924E-01
 6.00000E+00    1.24071E-01
 6.50000E+00    9.10135E-02
 7.00000E+00    7.25710E-02
 7.50000E+00    6.15928E-02
 8.00000E+00    5.44086E-02
 8.50000E+00    4.92114E-02
 9.00000E+00    4.51441E-02
 9.50000E+00    4.18195E-02
 1.00000E+01    3.90261E-02
 1.05000E+01    3.66483E-02
 1.10000E+01    3.45932E-02
 1.15000E+01    3.27868E-02
 1.20000E+01    3.11647E-02
 1.25000E+01    2.96749E-02
 1.30000E+01    2.82789E-02
 1.35000E+01    2.69571E-02
 1.40000E+01    2.57008E-02
 1.45000E+01    2.45096E-02
 1.50000E+01    2.33859E-02
 1.55000E+01    2.23303E-02
 1.60000E+01    2.13456E-02
 1.65000E+01    2.04434E-02
 1.70000E+01    1.96033E-02
 1.75000E+01    1.88223E-02
 1.80000E+01    1.80893E-02
 1.85000E+01    1.73912E-02
 1.90000E+01    1.67312E-02
 1.95000E+01    1.60940E-02
 2.00000E+01    1.54750E-02
