# n + Eu153 : (n,n'06)  
# jendl4.0   N.Iwamoto                         EVAL-Nov09
# uncertainties: n
# # energies =    95
#   E(MeV)       xs(mb) 
 1.94338E-01    0.00000E+00
 2.00000E-01    2.09789E+01
 2.25000E-01    4.69538E+01
 2.36833E-01    5.67078E+01
 2.50000E-01    6.47866E+01
 2.71515E-01    7.78151E+01
 2.75000E-01    7.84212E+01
 3.00000E-01    8.94391E+01
 3.23982E-01    9.92618E+01
 3.27210E-01    1.00431E+02
 3.99018E-01    1.17884E+02
 4.00000E-01    1.17097E+02
 4.05949E-01    1.17289E+02
 4.45542E-01    1.22599E+02
 4.51094E-01    1.22982E+02
 4.81079E-01    1.24384E+02
 4.84224E-01    1.24662E+02
 5.00000E-01    1.26297E+02
 5.41489E-01    1.31040E+02
 5.56117E-01    1.31693E+02
 5.63431E-01    1.31724E+02
 5.73065E-01    1.32327E+02
 5.88879E-01    1.32303E+02
 5.93227E-01    1.32091E+02
 6.00000E-01    1.32014E+02
 6.21251E-01    1.32298E+02
 6.38806E-01    1.32185E+02
 6.40714E-01    1.32242E+02
 6.45819E-01    1.32358E+02
 6.59018E-01    1.32255E+02
 6.62018E-01    1.32318E+02
 6.86398E-01    1.32375E+02
 6.98764E-01    1.32320E+02
 7.00000E-01    1.32184E+02
 7.06016E-01    1.32131E+02
 7.11290E-01    1.31625E+02
 7.15790E-01    1.31265E+02
 7.17814E-01    1.30755E+02
 7.20897E-01    1.30366E+02
 7.23430E-01    1.30170E+02
 7.37352E-01    1.29533E+02
 7.40855E-01    1.29070E+02
 7.65406E-01    1.28083E+02
 7.68838E-01    1.28039E+02
 8.00000E-01    1.27192E+02
 9.00000E-01    1.24602E+02
 1.00000E+00    1.20485E+02
 1.10000E+00    1.16358E+02
 1.20000E+00    1.12612E+02
 1.30000E+00    1.08313E+02
 1.40000E+00    1.04418E+02
 1.50000E+00    1.01024E+02
 1.60000E+00    9.81351E+01
 1.70000E+00    9.57988E+01
 1.80000E+00    9.40157E+01
 1.90000E+00    9.27200E+01
 2.00000E+00    9.18524E+01
 2.25000E+00    9.14649E+01
 2.50000E+00    9.16703E+01
 2.75000E+00    9.27724E+01
 3.00000E+00    9.38670E+01
 3.50000E+00    9.59776E+01
 4.00000E+00    9.68170E+01
 4.50000E+00    9.63289E+01
 5.00000E+00    9.53631E+01
 5.50000E+00    9.44746E+01
 6.00000E+00    9.38366E+01
 6.50000E+00    9.33493E+01
 7.00000E+00    9.28159E+01
 7.50000E+00    9.20619E+01
 8.00000E+00    9.10300E+01
 8.50000E+00    8.97093E+01
 9.00000E+00    8.81883E+01
 9.50000E+00    8.65447E+01
 1.00000E+01    8.48745E+01
 1.05000E+01    8.32566E+01
 1.10000E+01    8.17592E+01
 1.15000E+01    8.04311E+01
 1.20000E+01    7.92940E+01
 1.25000E+01    7.83364E+01
 1.30000E+01    7.75181E+01
 1.35000E+01    7.67847E+01
 1.40000E+01    7.60859E+01
 1.45000E+01    7.53889E+01
 1.50000E+01    7.46821E+01
 1.55000E+01    7.39716E+01
 1.60000E+01    7.32719E+01
 1.65000E+01    7.25966E+01
 1.70000E+01    7.19532E+01
 1.75000E+01    7.13420E+01
 1.80000E+01    7.07577E+01
 1.85000E+01    7.01912E+01
 1.90000E+01    6.96310E+01
 1.95000E+01    6.90651E+01
 2.00000E+01    6.84829E+01
