# n + N  15 : (n,tot)   
# jendl.ad   T.FUKAHORI                        EVAL-DEC88
# uncertainties: n
# # energies =    69
#   E(MeV)       xs(mb) 
 1.00000E-10    1.70108E-01
 5.00000E-09    4.63172E-02
 1.00000E-08    3.50751E-02
 1.50000E-08    2.94805E-02
 2.00000E-08    2.59391E-02
 2.50000E-08    2.34287E-02
 3.00000E-08    2.15345E-02
 3.50000E-08    1.98137E-02
 4.20000E-08    1.81182E-02
 5.00000E-08    1.67053E-02
 5.80000E-08    1.55203E-02
 6.70000E-08    1.43324E-02
 8.00000E-08    1.29733E-02
 1.00000E-07    1.12740E-02
 1.40000E-07    9.72270E-03
 1.80000E-07    8.68779E-03
 2.20000E-07    8.00165E-03
 2.50000E-07    7.53129E-03
 2.80000E-07    7.19329E-03
 3.00000E-07    6.95232E-03
 3.20000E-07    6.69246E-03
 3.50000E-07    6.33843E-03
 4.00000E-07    5.80524E-03
 5.00000E-07    5.20960E-03
 6.25000E-07    4.65070E-03
 7.80000E-07    4.30532E-03
 8.50000E-07    4.14361E-03
 9.10000E-07    4.03667E-03
 9.50000E-07    3.97041E-03
 9.72000E-07    3.92142E-03
 9.96000E-07    3.87365E-03
 1.02000E-06    3.83144E-03
 1.04500E-06    3.78787E-03
 1.07100E-06    3.74391E-03
 1.09700E-06    3.70194E-03
 1.12300E-06    3.65946E-03
 1.15000E-06    3.53365E-03
 1.30000E-06    3.31835E-03
 1.50000E-06    2.95790E-03
 2.10000E-06    2.59224E-03
 2.60000E-06    2.31939E-03
 3.30000E-06    2.09675E-03
 4.00000E-06    1.63502E-03
 9.87700E-06    1.20247E-03
 1.59680E-05    9.82384E-04
 2.77000E-05    8.21594E-04
 4.80520E-05    7.27976E-04
 7.55014E-05    6.78548E-04
 1.48728E-04    7.01816E-04
 3.67262E-04    8.61784E-04
 9.06898E-04    1.09068E-03
 1.42510E-03    1.31263E-03
 2.23945E-03    1.59982E-03
 3.51910E-03    1.96423E-03
 5.53000E-03    2.45601E-03
 9.11800E-03    3.10317E-03
 1.50300E-02    3.94877E-03
 2.47800E-02    4.99690E-03
 4.08500E-02    6.29457E-03
 6.73400E-02    7.89887E-03
 1.11000E-01    9.71354E-03
 1.83000E-01    1.19390E-02
 3.02000E-01    1.40003E-02
 5.00000E-01    1.44487E-02
 8.21000E-01    1.76049E-02
 1.35300E+00    1.63318E-02
 2.23100E+00    1.71678E-02
 3.67900E+00    1.56604E-02
 6.06500E+00    2.74638E+00
