# n + Li  6 : (n,xp)    
# jendl4.0   S.CHIBA AND K.SHIBATA             EVAL-MAR85
# 
# # energies =   132
#   E(MeV)        xs(mb) 
 1.75150E+00    0.00000E+00
 2.00000E+00    0.00000E+00
 2.33540E+00    0.00000E+00
 2.50000E+00    0.00000E+00
 2.55140E+00    0.00000E+00
 2.78417E+00    0.00000E+00
 2.91920E+00    0.00000E+00
 3.00000E+00    0.00000E+00
 3.22331E+00    1.79507E+00
 3.25000E+00    3.03403E+00
 3.42600E+00    1.12040E+01
 3.50000E+00    1.46391E+01
 3.50310E+00    1.47830E+01
 3.62732E+00    1.99225E+01
 3.75155E+00    2.38798E+01
 3.76380E+00    2.43293E+01
 4.00000E+00    3.22093E+01
 4.08690E+00    3.40442E+01
 4.15931E+00    3.44760E+01
 4.19017E+00    3.45397E+01
 4.24700E+00    3.46032E+01
 4.25300E+00    3.46099E+01
 4.25900E+00    3.46134E+01
 4.27200E+00    3.46198E+01
 4.28400E+00    3.46256E+01
 4.29345E+00    3.46302E+01
 4.29700E+00    3.46320E+01
 4.32200E+00    3.46441E+01
 4.34700E+00    3.45216E+01
 4.39750E+00    3.37816E+01
 4.42300E+00    3.34080E+01
 4.44770E+00    3.25323E+01
 4.48000E+00    3.11076E+01
 4.50000E+00    3.00257E+01
 4.51200E+00    2.94035E+01
 4.57700E+00    2.67275E+01
 4.64200E+00    2.59330E+01
 4.67080E+00    2.60252E+01
 4.67400E+00    2.60616E+01
 4.70600E+00    2.64255E+01
 4.74200E+00    2.71088E+01
 4.77800E+00    2.78263E+01
 4.81400E+00    2.85150E+01
 4.83540E+00    2.87362E+01
 4.85000E+00    2.88871E+01
 5.00000E+00    2.89932E+01
 5.01500E+00    2.89012E+01
 5.03311E+00    2.87901E+01
 5.10000E+00    2.83799E+01
 5.18000E+00    2.75784E+01
 5.25460E+00    2.68032E+01
 5.34500E+00    2.58443E+01
 5.50000E+00    2.41817E+01
 5.51000E+00    2.41070E+01
 5.83840E+00    2.20506E+01
 5.84000E+00    2.20429E+01
 6.00000E+00    2.12668E+01
 6.17100E+00    2.04035E+01
 6.42230E+00    1.91706E+01
 6.50000E+00    1.87959E+01
 6.65632E+00    1.81250E+01
 6.70000E+00    1.79488E+01
 6.80000E+00    1.75453E+01
 6.95000E+00    1.70488E+01
 7.00000E+00    1.68956E+01
 7.00610E+00    1.68769E+01
 7.50000E+00    1.54642E+01
 7.59000E+00    1.52467E+01
 8.00000E+00    1.43057E+01
 8.17380E+00    1.39437E+01
 8.47000E+00    1.33287E+01
 8.50000E+00    1.32668E+01
 8.75770E+00    1.27346E+01
 8.76770E+00    1.27139E+01
 8.76770E+00    1.27139E+01
 9.00000E+00    1.23241E+01
 9.34150E+00    1.18464E+01
 9.50000E+00    1.16246E+01
 9.92530E+00    1.10296E+01
 1.00000E+01    1.09251E+01
 1.02500E+01    1.05753E+01
 1.05000E+01    1.02256E+01
 1.05090E+01    1.02130E+01
 1.06317E+01    1.00413E+01
 1.07545E+01    9.86954E+00
 1.10000E+01    9.55931E+00
 1.10930E+01    9.46010E+00
 1.11947E+01    9.35161E+00
 1.12965E+01    9.24302E+00
 1.15000E+01    9.02594E+00
 1.16770E+01    8.83712E+00
 1.17577E+01    8.75104E+00
 1.18385E+01    8.66484E+00
 1.20000E+01    8.49256E+00
 1.22610E+01    8.21414E+00
 1.25000E+01    7.95919E+00
 1.28450E+01    7.60643E+00
 1.30000E+01    7.49365E+00
 1.32140E+01    7.33795E+00
 1.34280E+01    7.18225E+00
 1.35000E+01    7.12987E+00
 1.36250E+01    7.03892E+00
 1.37500E+01    6.94797E+00
 1.40000E+01    6.76608E+00
 1.40120E+01    6.75735E+00
 1.42560E+01    6.63583E+00
 1.45000E+01    6.54591E+00
 1.45960E+01    6.51054E+00
 1.47980E+01    6.43609E+00
 1.50000E+01    6.36165E+00
 1.51800E+01    6.29532E+00
 1.53400E+01    6.23015E+00
 1.55000E+01    6.16409E+00
 1.57640E+01    6.05509E+00
 1.58820E+01    6.00637E+00
 1.60000E+01    5.95766E+00
 1.63480E+01    5.81398E+00
 1.65000E+01    5.75122E+00
 1.67155E+01    5.66225E+00
 1.69310E+01    5.57328E+00
 1.70000E+01    5.54479E+00
 1.75000E+01    5.42656E+00
 1.75150E+01    5.42301E+00
 1.80000E+01    5.30833E+00
 1.80990E+01    5.28492E+00
 1.85000E+01    5.19010E+00
 1.86830E+01    5.14683E+00
 1.90000E+01    5.07187E+00
 1.92670E+01    5.05383E+00
 1.95000E+01    5.03809E+00
 1.98510E+01    5.01438E+00
 2.00000E+01    5.00431E+00
