# n + Li  6 : (n,xn)    
# jendl4.0   S.CHIBA AND K.SHIBATA             EVAL-MAR85
# 
# # energies =   132
#   E(MeV)        xs(mb) 
 1.75150E+00    0.00000E+00
 2.00000E+00    1.79250E+01
 2.33540E+00    3.94390E+01
 2.50000E+00    5.00130E+01
 2.55140E+00    5.16918E+01
 2.78417E+00    1.64073E+02
 2.91920E+00    2.26074E+02
 3.00000E+00    2.60212E+02
 3.22331E+00    3.98161E+02
 3.25000E+00    4.07930E+02
 3.42600E+00    4.74064E+02
 3.50000E+00    4.97061E+02
 3.50310E+00    4.97876E+02
 3.62732E+00    5.33705E+02
 3.75155E+00    5.70382E+02
 3.76380E+00    5.74124E+02
 4.00000E+00    6.27873E+02
 4.08690E+00    6.33796E+02
 4.15931E+00    6.37561E+02
 4.19017E+00    6.39309E+02
 4.24700E+00    6.42832E+02
 4.25300E+00    6.43252E+02
 4.25900E+00    6.43685E+02
 4.27200E+00    6.44642E+02
 4.28400E+00    6.45582E+02
 4.29345E+00    6.46330E+02
 4.29700E+00    6.46640E+02
 4.32200E+00    6.48917E+02
 4.34700E+00    6.51248E+02
 4.39750E+00    6.55896E+02
 4.42300E+00    6.58109E+02
 4.44770E+00    6.60114E+02
 4.48000E+00    6.62702E+02
 4.50000E+00    6.64398E+02
 4.51200E+00    6.65754E+02
 4.57700E+00    6.73248E+02
 4.64200E+00    6.80515E+02
 4.67080E+00    6.83514E+02
 4.67400E+00    6.83810E+02
 4.70600E+00    6.86512E+02
 4.74200E+00    6.89277E+02
 4.77800E+00    6.91914E+02
 4.81400E+00    6.94536E+02
 4.83540E+00    6.96154E+02
 4.85000E+00    6.97385E+02
 5.00000E+00    7.10530E+02
 5.01500E+00    7.10782E+02
 5.03311E+00    7.11113E+02
 5.10000E+00    7.17274E+02
 5.18000E+00    7.20337E+02
 5.25460E+00    7.23269E+02
 5.34500E+00    7.26702E+02
 5.50000E+00    7.32668E+02
 5.51000E+00    7.32883E+02
 5.83840E+00    7.39714E+02
 5.84000E+00    7.39741E+02
 6.00000E+00    7.42346E+02
 6.17100E+00    7.42783E+02
 6.42230E+00    7.43534E+02
 6.50000E+00    7.43224E+02
 6.65632E+00    7.39607E+02
 6.70000E+00    7.43230E+02
 6.80000E+00    7.45370E+02
 6.95000E+00    7.46565E+02
 7.00000E+00    7.46982E+02
 7.00610E+00    7.46877E+02
 7.50000E+00    7.36855E+02
 7.59000E+00    7.34942E+02
 8.00000E+00    7.25758E+02
 8.17380E+00    7.24613E+02
 8.47000E+00    7.22049E+02
 8.50000E+00    7.21791E+02
 8.75770E+00    7.18951E+02
 8.76770E+00    7.18854E+02
 8.76770E+00    7.18854E+02
 9.00000E+00    7.16357E+02
 9.34150E+00    7.14531E+02
 9.50000E+00    7.13797E+02
 9.92530E+00    7.10283E+02
 1.00000E+01    7.09900E+02
 1.02500E+01    7.01200E+02
 1.05000E+01    6.92056E+02
 1.05090E+01    6.91712E+02
 1.06317E+01    6.87444E+02
 1.07545E+01    6.83031E+02
 1.10000E+01    6.73781E+02
 1.10930E+01    6.69391E+02
 1.11947E+01    6.64865E+02
 1.12965E+01    6.60230E+02
 1.15000E+01    6.50654E+02
 1.16770E+01    6.42166E+02
 1.17577E+01    6.38523E+02
 1.18385E+01    6.34811E+02
 1.20000E+01    6.27194E+02
 1.22610E+01    6.21561E+02
 1.25000E+01    6.15402E+02
 1.28450E+01    6.06933E+02
 1.30000E+01    6.03263E+02
 1.32140E+01    5.95779E+02
 1.34280E+01    5.88146E+02
 1.35000E+01    5.85785E+02
 1.36250E+01    5.81505E+02
 1.37500E+01    5.77137E+02
 1.40000E+01    5.68131E+02
 1.40120E+01    5.68192E+02
 1.42560E+01    5.71026E+02
 1.45000E+01    5.73973E+02
 1.45960E+01    5.75079E+02
 1.47980E+01    5.77353E+02
 1.50000E+01    5.79716E+02
 1.51800E+01    5.81762E+02
 1.53400E+01    5.83470E+02
 1.55000E+01    5.85240E+02
 1.57640E+01    5.88149E+02
 1.58820E+01    5.89332E+02
 1.60000E+01    5.90558E+02
 1.63480E+01    5.96163E+02
 1.65000E+01    5.98474E+02
 1.67155E+01    6.01843E+02
 1.69310E+01    6.05339E+02
 1.70000E+01    6.06713E+02
 1.75000E+01    6.14814E+02
 1.75150E+01    6.15048E+02
 1.80000E+01    6.22493E+02
 1.80990E+01    6.21382E+02
 1.85000E+01    6.15979E+02
 1.86830E+01    6.13598E+02
 1.90000E+01    6.09434E+02
 1.92670E+01    6.05908E+02
 1.95000E+01    6.02829E+02
 1.98510E+01    5.98204E+02
 2.00000E+01    5.96244E+02
