# n + Li  6 : (n,xt)    
# jendl4.0   S.CHIBA AND K.SHIBATA             EVAL-MAR85
# 
# # energies =   132
#   E(MeV)        xs(mb) 
 1.75150E+00    2.14474E+02
 2.00000E+00    2.08491E+02
 2.33540E+00    1.97969E+02
 2.50000E+00    1.84741E+02
 2.55140E+00    1.80610E+02
 2.78417E+00    1.62014E+02
 2.91920E+00    1.51373E+02
 3.00000E+00    1.45482E+02
 3.22331E+00    1.31551E+02
 3.25000E+00    1.29886E+02
 3.42600E+00    1.20740E+02
 3.50000E+00    1.17701E+02
 3.50310E+00    1.17574E+02
 3.62732E+00    1.14483E+02
 3.75155E+00    1.11878E+02
 3.76380E+00    1.11664E+02
 4.00000E+00    1.07533E+02
 4.08690E+00    1.06014E+02
 4.15931E+00    1.04747E+02
 4.19017E+00    1.04208E+02
 4.24700E+00    1.03214E+02
 4.25300E+00    1.03109E+02
 4.25900E+00    1.03004E+02
 4.27200E+00    1.02710E+02
 4.28400E+00    1.02414E+02
 4.29345E+00    1.02181E+02
 4.29700E+00    1.02093E+02
 4.32200E+00    1.01476E+02
 4.34700E+00    1.00859E+02
 4.39750E+00    9.96128E+01
 4.42300E+00    9.89836E+01
 4.44770E+00    9.83740E+01
 4.48000E+00    9.75769E+01
 4.50000E+00    9.70833E+01
 4.51200E+00    9.67872E+01
 4.57700E+00    9.51831E+01
 4.64200E+00    9.35790E+01
 4.67080E+00    9.28683E+01
 4.67400E+00    9.27894E+01
 4.70600E+00    9.19997E+01
 4.74200E+00    9.11112E+01
 4.77800E+00    9.02228E+01
 4.81400E+00    8.93344E+01
 4.83540E+00    8.88063E+01
 4.85000E+00    8.84460E+01
 5.00000E+00    8.47443E+01
 5.01500E+00    8.43741E+01
 5.03311E+00    8.39272E+01
 5.10000E+00    8.22765E+01
 5.18000E+00    8.03022E+01
 5.25460E+00    7.84613E+01
 5.34500E+00    7.62304E+01
 5.50000E+00    7.30304E+01
 5.51000E+00    7.28317E+01
 5.83840E+00    6.73878E+01
 5.84000E+00    6.73650E+01
 6.00000E+00    6.53484E+01
 6.17100E+00    6.34956E+01
 6.42230E+00    6.07729E+01
 6.50000E+00    5.99310E+01
 6.65632E+00    5.82374E+01
 6.70000E+00    5.77641E+01
 6.80000E+00    5.66806E+01
 6.95000E+00    5.51314E+01
 7.00000E+00    5.46190E+01
 7.00610E+00    5.45565E+01
 7.50000E+00    4.94951E+01
 7.59000E+00    4.86952E+01
 8.00000E+00    4.53025E+01
 8.17380E+00    4.38644E+01
 8.47000E+00    4.18734E+01
 8.50000E+00    4.17239E+01
 8.75770E+00    4.04400E+01
 8.76770E+00    4.03902E+01
 8.76770E+00    4.03902E+01
 9.00000E+00    3.92329E+01
 9.34150E+00    3.80765E+01
 9.50000E+00    3.77003E+01
 9.92530E+00    3.66909E+01
 1.00000E+01    3.65136E+01
 1.02500E+01    3.59203E+01
 1.05000E+01    3.53270E+01
 1.05090E+01    3.53056E+01
 1.06317E+01    3.50145E+01
 1.07545E+01    3.47230E+01
 1.10000E+01    3.41404E+01
 1.10930E+01    3.39197E+01
 1.11947E+01    3.36784E+01
 1.12965E+01    3.34368E+01
 1.15000E+01    3.30124E+01
 1.16770E+01    3.26726E+01
 1.17577E+01    3.25177E+01
 1.18385E+01    3.23626E+01
 1.20000E+01    3.20526E+01
 1.22610E+01    3.15516E+01
 1.25000E+01    3.10928E+01
 1.28450E+01    3.04306E+01
 1.30000E+01    3.01330E+01
 1.32140E+01    2.97222E+01
 1.34280E+01    2.93114E+01
 1.35000E+01    2.91732E+01
 1.36250E+01    2.89264E+01
 1.37500E+01    2.86324E+01
 1.40000E+01    2.80444E+01
 1.40120E+01    2.80162E+01
 1.42560E+01    2.74423E+01
 1.45000E+01    2.68684E+01
 1.45960E+01    2.66426E+01
 1.47980E+01    2.61675E+01
 1.50000E+01    2.56924E+01
 1.51800E+01    2.52691E+01
 1.53400E+01    2.48928E+01
 1.55000E+01    2.45165E+01
 1.57640E+01    2.38956E+01
 1.58820E+01    2.35881E+01
 1.60000E+01    2.32065E+01
 1.63480E+01    2.20814E+01
 1.65000E+01    2.15899E+01
 1.67155E+01    2.08932E+01
 1.69310E+01    2.01964E+01
 1.70000E+01    2.00406E+01
 1.75000E+01    1.94442E+01
 1.75150E+01    1.94264E+01
 1.80000E+01    1.88479E+01
 1.80990E+01    1.87298E+01
 1.85000E+01    1.84685E+01
 1.86830E+01    1.83827E+01
 1.90000E+01    1.82340E+01
 1.92670E+01    1.81087E+01
 1.95000E+01    1.79994E+01
 1.98510E+01    1.78347E+01
 2.00000E+01    1.77648E+01
