# n + Zn  0 : (n,h)
# endfb8.0   N.Iwamoto                         EVAL-Dec09
# uncertainties: n
# # energies =    57
#   E(MeV)          xs(mb) 
 6.21392E+00    0.00000E+00
 7.40533E+00    4.77347E-11
 8.29484E+00    8.87157E-11
 8.50000E+00    9.87238E-11
 8.55203E+00    9.42255E-10
 8.58713E+00    1.51478E-09
 9.00000E+00    8.28144E-09
 9.15073E+00    6.20426E-08
 9.32068E+00    1.22655E-07
 9.42172E+00    1.58695E-07
 9.44053E+00    1.65406E-07
 9.50000E+00    1.86614E-07
 9.52300E+00    2.59296E-07
 9.52738E+00    2.73141E-07
 9.53543E+00    2.98579E-07
 9.54309E+00    3.22787E-07
 9.63735E+00    6.20680E-07
 9.64521E+00    6.45520E-07
 9.73054E+00    9.15193E-07
 9.75492E+00    9.92248E-07
 9.76914E+00    1.03719E-06
 9.78793E+00    1.09657E-06
 9.79237E+00    1.11060E-06
 1.00000E+01    1.76679E-06
 1.00302E+01    2.22390E-06
 1.01186E+01    3.56193E-06
 1.01240E+01    3.64367E-06
 1.01277E+01    3.69967E-06
 1.01348E+01    3.80714E-06
 1.02435E+01    5.45245E-06
 1.02495E+01    5.54324E-06
 1.02740E+01    5.91409E-06
 1.02960E+01    6.24706E-06
 1.03126E+01    6.49833E-06
 1.03330E+01    6.80713E-06
 1.03405E+01    6.92064E-06
 1.04233E+01    8.17393E-06
 1.05000E+01    9.33487E-06
 1.10000E+01    3.32212E-05
 1.15000E+01    8.99994E-05
 1.20000E+01    1.99679E-04
 1.25000E+01    3.79984E-04
 1.30000E+01    6.38995E-04
 1.35000E+01    9.73763E-04
 1.40000E+01    1.37747E-03
 1.45000E+01    1.85877E-03
 1.50000E+01    2.45071E-03
 1.55000E+01    3.19965E-03
 1.60000E+01    4.21164E-03
 1.65000E+01    5.61443E-03
 1.70000E+01    7.54965E-03
 1.75000E+01    1.02175E-02
 1.80000E+01    1.38522E-02
 1.85000E+01    1.86921E-02
 1.90000E+01    2.49927E-02
 1.95000E+01    3.29507E-02
 2.00000E+01    4.27494E-02
