# n + Cs133 : (n,xa)    
# jendl4.0   N.Iwamoto,H.Matsunobu             EVAL-Apr09
# 
# # energies =    88
#   E(MeV)        xs(mb) 
 8.16117E-02    1.63880E-09
 9.00000E-02    2.18110E-09
 1.00000E-01    2.04740E-09
 1.05000E-01    2.00720E-09
 1.10000E-01    1.96700E-09
 1.20000E-01    1.90920E-09
 1.30000E-01    1.86700E-09
 1.40000E-01    1.85810E-09
 1.50000E-01    1.85950E-09
 1.60000E-01    1.86662E-09
 1.61832E-01    1.86820E-09
 1.70000E-01    1.83480E-09
 1.80000E-01    1.82910E-09
 1.90000E-01    2.62080E-09
 2.00000E-01    2.59390E-09
 2.25000E-01    2.65960E-09
 2.50000E-01    2.76820E-09
 2.75000E-01    2.91150E-09
 3.00000E-01    4.34630E-09
 3.86764E-01    5.42980E-09
 4.00000E-01    7.90090E-09
 4.40329E-01    8.71320E-09
 5.00000E-01    1.45130E-08
 6.00000E-01    2.69140E-08
 6.37361E-01    2.95710E-08
 6.45250E-01    2.87300E-08
 7.00000E-01    4.28150E-08
 7.10895E-01    4.33830E-08
 7.33827E-01    4.30680E-08
 7.73536E-01    4.38930E-08
 7.94766E-01    6.18940E-08
 8.00000E-01    6.14310E-08
 8.25276E-01    6.15620E-08
 8.78436E-01    6.37400E-08
 8.78437E-01    6.37413E-08
 9.00000E-01    9.09700E-08
 9.23042E-01    9.27860E-08
 9.23043E-01    9.27861E-08
 9.48746E-01    9.42440E-08
 1.00000E+00    1.39070E-07
 1.10000E+00    2.14710E-07
 1.20000E+00    3.21300E-07
 1.30000E+00    4.76559E-07
 1.40000E+00    7.03510E-07
 1.50000E+00    1.03567E-06
 1.60000E+00    1.49540E-06
 1.70000E+00    2.15479E-06
 1.80000E+00    3.09162E-06
 1.90000E+00    3.30750E-06
 2.00000E+00    4.72849E-06
 2.25000E+00    1.28461E-05
 2.50000E+00    2.46516E-05
 2.75000E+00    6.06397E-05
 3.00000E+00    1.08945E-04
 3.50000E+00    4.05109E-04
 4.00000E+00    1.25528E-03
 4.50000E+00    3.29371E-03
 5.00000E+00    7.49887E-03
 5.50000E+00    1.51763E-02
 6.00000E+00    2.79207E-02
 6.50000E+00    4.74239E-02
 7.00000E+00    7.51642E-02
 7.50000E+00    1.11958E-01
 8.00000E+00    1.57379E-01
 8.50000E+00    2.10370E-01
 9.00000E+00    2.69480E-01
 9.50000E+00    3.33663E-01
 1.00000E+01    4.02453E-01
 1.05000E+01    4.78124E-01
 1.10000E+01    5.61440E-01
 1.15000E+01    6.57469E-01
 1.20000E+01    7.70364E-01
 1.25000E+01    9.03363E-01
 1.30000E+01    1.05717E+00
 1.35000E+01    1.23315E+00
 1.40000E+01    1.42632E+00
 1.45000E+01    1.63717E+00
 1.50000E+01    1.86363E+00
 1.55000E+01    2.10233E+00
 1.60000E+01    2.35112E+00
 1.65000E+01    2.60786E+00
 1.70000E+01    2.87221E+00
 1.75000E+01    3.14110E+00
 1.80000E+01    3.41114E+00
 1.85000E+01    3.68663E+00
 1.90000E+01    3.96602E+00
 1.95000E+01    4.24484E+00
 2.00000E+01    4.52305E+00
