# n + Cs133 : (n,xp)    
# jendl4.0   N.Iwamoto,H.Matsunobu             EVAL-Apr09
# 
# # energies =    88
#   E(MeV)        xs(mb) 
 8.16117E-02    0.00000E+00
 9.00000E-02    0.00000E+00
 1.00000E-01    0.00000E+00
 1.05000E-01    0.00000E+00
 1.10000E-01    0.00000E+00
 1.20000E-01    0.00000E+00
 1.30000E-01    0.00000E+00
 1.40000E-01    0.00000E+00
 1.50000E-01    0.00000E+00
 1.60000E-01    0.00000E+00
 1.61832E-01    0.00000E+00
 1.70000E-01    0.00000E+00
 1.80000E-01    1.09235E-14
 1.90000E-01    3.97454E-14
 2.00000E-01    6.85673E-14
 2.25000E-01    1.40622E-13
 2.50000E-01    2.12677E-13
 2.75000E-01    3.63612E-13
 3.00000E-01    5.33305E-13
 3.86764E-01    1.31695E-12
 4.00000E-01    1.46891E-12
 4.40329E-01    1.96551E-12
 5.00000E-01    2.70028E-12
 6.00000E-01    4.45158E-12
 6.37361E-01    5.20893E-12
 6.45250E-01    5.36885E-12
 7.00000E-01    1.84290E-11
 7.10895E-01    2.19440E-11
 7.33827E-01    3.20710E-11
 7.73536E-01    6.27570E-11
 7.94766E-01    9.09260E-11
 8.00000E-01    9.93660E-11
 8.25276E-01    1.54190E-10
 8.78436E-01    3.77350E-10
 8.78437E-01    3.77357E-10
 9.00000E-01    5.48130E-10
 9.23042E-01    7.98310E-10
 9.23043E-01    7.98326E-10
 9.48746E-01    1.20090E-09
 1.00000E+00    2.62660E-09
 1.10000E+00    1.08420E-08
 1.20000E+00    3.82330E-08
 1.30000E+00    1.18890E-07
 1.40000E+00    3.32940E-07
 1.50000E+00    8.51970E-07
 1.60000E+00    1.99332E-06
 1.70000E+00    4.37125E-06
 1.80000E+00    9.04622E-06
 1.90000E+00    1.77766E-05
 2.00000E+00    3.33733E-05
 2.25000E+00    1.35474E-04
 2.50000E+00    4.28197E-04
 2.75000E+00    1.18642E-03
 3.00000E+00    2.77328E-03
 3.50000E+00    1.12123E-02
 4.00000E+00    3.05706E-02
 4.50000E+00    6.41540E-02
 5.00000E+00    1.10043E-01
 5.50000E+00    1.64080E-01
 6.00000E+00    2.23402E-01
 6.50000E+00    2.88894E-01
 7.00000E+00    3.66248E-01
 7.50000E+00    4.65454E-01
 8.00000E+00    6.00358E-01
 8.50000E+00    7.87320E-01
 9.00000E+00    1.05168E+00
 9.50000E+00    1.41539E+00
 1.00000E+01    1.89253E+00
 1.05000E+01    2.49759E+00
 1.10000E+01    3.24309E+00
 1.15000E+01    4.14390E+00
 1.20000E+01    5.19696E+00
 1.25000E+01    6.40753E+00
 1.30000E+01    7.77770E+00
 1.35000E+01    9.30049E+00
 1.40000E+01    1.09813E+01
 1.45000E+01    1.28214E+01
 1.50000E+01    1.48055E+01
 1.55000E+01    1.69371E+01
 1.60000E+01    1.92134E+01
 1.65000E+01    2.16312E+01
 1.70000E+01    2.41957E+01
 1.75000E+01    2.68680E+01
 1.80000E+01    2.97238E+01
 1.85000E+01    3.26505E+01
 1.90000E+01    3.57687E+01
 1.95000E+01    3.88854E+01
 2.00000E+01    4.21908E+01
