# n + Dy160 : (n,n'19)  
# jendl4.0   N.Iwamoto,S.Chiba                 EVAL-Nov09
# uncertainties: n
# # energies =    66
#   E(MeV)       xs(mb) 
 1.44761E+00    0.00000E+00
 1.46594E+00    2.96591E-02
 1.49889E+00    1.08904E-01
 1.50000E+00    1.11949E-01
 1.52800E+00    1.98137E-01
 1.53193E+00    2.11281E-01
 1.54483E+00    2.55541E-01
 1.56641E+00    3.33294E-01
 1.59675E+00    4.56236E-01
 1.60000E+00    4.65733E-01
 1.60443E+00    4.83026E-01
 1.61390E+00    5.17178E-01
 1.61698E+00    5.28362E-01
 1.61800E+00    5.32235E-01
 1.62416E+00    5.54887E-01
 1.62747E+00    5.68286E-01
 1.65362E+00    6.82202E-01
 1.66128E+00    7.15979E-01
 1.66237E+00    7.20152E-01
 1.66409E+00    7.25829E-01
 1.66543E+00    7.29623E-01
 1.68667E+00    8.12659E-01
 1.70000E+00    8.70177E-01
 1.70505E+00    8.93552E-01
 1.71891E+00    9.54955E-01
 1.80000E+00    1.40385E+00
 1.90000E+00    2.08466E+00
 2.00000E+00    2.80589E+00
 2.25000E+00    4.23152E+00
 2.50000E+00    5.36767E+00
 2.75000E+00    5.31116E+00
 3.00000E+00    5.16447E+00
 3.50000E+00    3.60009E+00
 4.00000E+00    2.16824E+00
 4.50000E+00    1.22002E+00
 5.00000E+00    6.74930E-01
 5.50000E+00    3.85258E-01
 6.00000E+00    2.38599E-01
 6.50000E+00    1.65772E-01
 7.00000E+00    1.28832E-01
 7.50000E+00    1.08873E-01
 8.00000E+00    9.68301E-02
 8.50000E+00    8.85358E-02
 9.00000E+00    8.21333E-02
 9.50000E+00    7.67950E-02
 1.00000E+01    7.21296E-02
 1.05000E+01    6.80089E-02
 1.10000E+01    6.42064E-02
 1.15000E+01    6.07764E-02
 1.20000E+01    5.75806E-02
 1.25000E+01    5.46583E-02
 1.30000E+01    5.19276E-02
 1.35000E+01    4.94121E-02
 1.40000E+01    4.70546E-02
 1.45000E+01    4.48723E-02
 1.50000E+01    4.28262E-02
 1.55000E+01    4.09279E-02
 1.60000E+01    3.91693E-02
 1.65000E+01    3.74941E-02
 1.70000E+01    3.59749E-02
 1.75000E+01    3.45327E-02
 1.80000E+01    3.31437E-02
 1.85000E+01    3.17834E-02
 1.90000E+01    3.06149E-02
 1.95000E+01    2.95279E-02
 2.00000E+01    2.84744E-02
