# n + Dy160 : (n,d)     
# jendl4.0   N.Iwamoto,S.Chiba                 EVAL-Nov09
# uncertainties: n
# # energies =    54
#   E(MeV)       xs(mb) 
 5.23624E+00    0.00000E+00
 5.29460E+00    4.02500E-21
 5.37461E+00    1.06090E-20
 5.47891E+00    1.93340E-20
 5.58672E+00    2.83600E-20
 5.60057E+00    1.11550E-19
 5.60208E+00    1.22450E-19
 5.62709E+00    3.48240E-19
 5.66714E+00    7.77040E-19
 5.69371E+00    1.08020E-18
 5.74986E+00    1.73360E-18
 5.77159E+00    1.98780E-18
 5.77632E+00    2.04330E-18
 5.78478E+00    2.14260E-18
 5.78729E+00    2.17200E-18
 5.82071E+00    2.56490E-18
 5.85775E+00    3.00040E-18
 5.90937E+00    3.60760E-18
 5.91473E+00    3.67070E-18
 5.91841E+00    3.71400E-18
 6.00234E+00    4.70120E-18
 6.01824E+00    5.28460E-18
 6.04028E+00    6.31890E-18
 6.06362E+00    7.56860E-18
 6.09659E+00    9.54020E-18
 6.09895E+00    9.68570E-18
 6.50000E+00    3.46550E-17
 7.00000E+00    6.86020E-15
 7.50000E+00    7.86510E-12
 8.00000E+00    1.36420E-09
 8.50000E+00    4.32710E-08
 9.00000E+00    1.01038E-06
 9.50000E+00    1.26120E-05
 1.00000E+01    9.86117E-05
 1.05000E+01    5.41633E-04
 1.10000E+01    2.26054E-03
 1.15000E+01    7.58580E-03
 1.20000E+01    2.12496E-02
 1.25000E+01    5.11329E-02
 1.30000E+01    1.07815E-01
 1.35000E+01    2.02736E-01
 1.40000E+01    3.45136E-01
 1.45000E+01    5.40145E-01
 1.50000E+01    7.53474E-01
 1.55000E+01    1.04928E+00
 1.60000E+01    1.36805E+00
 1.65000E+01    1.78504E+00
 1.70000E+01    2.14238E+00
 1.75000E+01    2.61332E+00
 1.80000E+01    3.04423E+00
 1.85000E+01    3.50517E+00
 1.90000E+01    3.99518E+00
 1.95000E+01    4.51013E+00
 2.00000E+01    4.97855E+00
