# n + Dy160 : (n,h)     
# jendl4.0   N.Iwamoto,S.Chiba                 EVAL-Nov09
# uncertainties: n
# # energies =    51
#   E(MeV)       xs(mb) 
 6.14116E+00    0.00000E+00
 6.42047E+00    1.28440E-33
 6.78787E+00    2.97380E-33
 6.86136E+00    3.31230E-33
 6.90821E+00    3.52810E-33
 6.92626E+00    3.61120E-33
 7.04433E+00    4.15500E-33
 7.06195E+00    4.43850E-33
 7.07268E+00    4.68230E-33
 7.08177E+00    4.93070E-33
 7.14587E+00    6.74320E-33
 7.14953E+00    6.84890E-33
 7.15155E+00    6.90810E-33
 7.23657E+00    9.44780E-33
 7.24509E+00    9.70230E-33
 7.25865E+00    1.01080E-32
 7.26739E+00    1.03700E-32
 7.27783E+00    1.06820E-32
 7.28984E+00    1.10420E-32
 7.29362E+00    1.11550E-32
 7.30097E+00    1.13760E-32
 7.32713E+00    1.21600E-32
 7.33956E+00    1.25330E-32
 7.36882E+00    1.34100E-32
 7.38661E+00    1.39430E-32
 7.40510E+00    1.44980E-32
 8.00000E+00    3.23340E-32
 8.50000E+00    3.91810E-30
 9.00000E+00    7.02980E-26
 9.50000E+00    1.12630E-22
 1.00000E+01    3.41220E-20
 1.05000E+01    3.11990E-18
 1.10000E+01    1.15780E-16
 1.15000E+01    2.16140E-15
 1.20000E+01    2.33630E-14
 1.25000E+01    1.64690E-13
 1.30000E+01    8.37660E-13
 1.35000E+01    3.74020E-12
 1.40000E+01    2.10020E-11
 1.45000E+01    1.60390E-10
 1.50000E+01    1.19540E-09
 1.55000E+01    7.23380E-09
 1.60000E+01    3.85400E-08
 1.65000E+01    1.58710E-07
 1.70000E+01    5.14960E-07
 1.75000E+01    1.65039E-06
 1.80000E+01    4.36336E-06
 1.85000E+01    1.06441E-05
 1.90000E+01    2.28166E-05
 1.95000E+01    4.82268E-05
 2.00000E+01    9.25197E-05
