# n + Dy160 : (n,n'26)  
# jendl4.0   N.Iwamoto,S.Chiba                 EVAL-Nov09
# uncertainties: n
# # energies =    58
#   E(MeV)       xs(mb) 
 1.59675E+00    0.00000E+00
 1.60000E+00    1.20675E-01
 1.60443E+00    2.09839E-01
 1.61390E+00    3.89395E-01
 1.61698E+00    4.48821E-01
 1.61800E+00    4.69255E-01
 1.62416E+00    5.89342E-01
 1.62747E+00    6.54650E-01
 1.65362E+00    1.20945E+00
 1.66128E+00    1.37664E+00
 1.66237E+00    1.39960E+00
 1.66409E+00    1.43118E+00
 1.66543E+00    1.45327E+00
 1.68667E+00    1.85723E+00
 1.70000E+00    2.11922E+00
 1.70505E+00    2.21692E+00
 1.71891E+00    2.46874E+00
 1.80000E+00    4.07156E+00
 1.90000E+00    6.09222E+00
 2.00000E+00    7.92679E+00
 2.25000E+00    1.05661E+01
 2.50000E+00    1.20115E+01
 2.75000E+00    1.08062E+01
 3.00000E+00    9.60104E+00
 3.50000E+00    5.94427E+00
 4.00000E+00    3.30635E+00
 4.50000E+00    1.76127E+00
 5.00000E+00    9.48279E-01
 5.50000E+00    5.42082E-01
 6.00000E+00    3.43592E-01
 6.50000E+00    2.46404E-01
 7.00000E+00    1.96948E-01
 7.50000E+00    1.69672E-01
 8.00000E+00    1.52632E-01
 8.50000E+00    1.40448E-01
 9.00000E+00    1.30761E-01
 9.50000E+00    1.22531E-01
 1.00000E+01    1.15263E-01
 1.05000E+01    1.08808E-01
 1.10000E+01    1.02823E-01
 1.15000E+01    9.74086E-02
 1.20000E+01    9.23514E-02
 1.25000E+01    8.77204E-02
 1.30000E+01    8.33847E-02
 1.35000E+01    7.93881E-02
 1.40000E+01    7.56375E-02
 1.45000E+01    7.21626E-02
 1.50000E+01    6.89014E-02
 1.55000E+01    6.58617E-02
 1.60000E+01    6.30645E-02
 1.65000E+01    6.03665E-02
 1.70000E+01    5.79607E-02
 1.75000E+01    5.56398E-02
 1.80000E+01    5.34126E-02
 1.85000E+01    5.12426E-02
 1.90000E+01    4.93631E-02
 1.95000E+01    4.76147E-02
 2.00000E+01    4.59373E-02
