# n + Dy160 : (n,n'28)  
# jendl4.0   N.Iwamoto,S.Chiba                 EVAL-Nov09
# uncertainties: n
# # energies =    55
#   E(MeV)       xs(mb) 
 1.61390E+00    0.00000E+00
 1.61698E+00    9.94302E-01
 1.61800E+00    1.16267E+00
 1.62416E+00    1.97618E+00
 1.62747E+00    2.36397E+00
 1.65362E+00    5.27211E+00
 1.66128E+00    6.07609E+00
 1.66237E+00    6.18119E+00
 1.66409E+00    6.33954E+00
 1.66543E+00    6.44807E+00
 1.68667E+00    8.36729E+00
 1.70000E+00    9.46886E+00
 1.70505E+00    9.88855E+00
 1.71891E+00    1.09548E+01
 1.80000E+00    1.64133E+01
 1.90000E+00    2.14799E+01
 2.00000E+00    2.48322E+01
 2.25000E+00    2.67022E+01
 2.50000E+00    2.64624E+01
 2.75000E+00    2.17436E+01
 3.00000E+00    1.76987E+01
 3.50000E+00    9.68920E+00
 4.00000E+00    4.84225E+00
 4.50000E+00    2.31019E+00
 5.00000E+00    1.08325E+00
 5.50000E+00    5.12758E-01
 6.00000E+00    2.54928E-01
 6.50000E+00    1.40568E-01
 7.00000E+00    8.98033E-02
 7.50000E+00    6.66764E-02
 8.00000E+00    5.53164E-02
 8.50000E+00    4.89356E-02
 9.00000E+00    4.47357E-02
 9.50000E+00    4.15700E-02
 1.00000E+01    3.89537E-02
 1.05000E+01    3.67070E-02
 1.10000E+01    3.46596E-02
 1.15000E+01    3.28225E-02
 1.20000E+01    3.11138E-02
 1.25000E+01    2.95524E-02
 1.30000E+01    2.80919E-02
 1.35000E+01    2.67463E-02
 1.40000E+01    2.54837E-02
 1.45000E+01    2.43141E-02
 1.50000E+01    2.32163E-02
 1.55000E+01    2.21898E-02
 1.60000E+01    2.12512E-02
 1.65000E+01    2.03402E-02
 1.70000E+01    1.95300E-02
 1.75000E+01    1.87496E-02
 1.80000E+01    1.79977E-02
 1.85000E+01    1.72700E-02
 1.90000E+01    1.66355E-02
 1.95000E+01    1.60452E-02
 2.00000E+01    1.54833E-02
