# n + Dy160 : (n,n'07)  
# jendl4.0   N.Iwamoto,S.Chiba                 EVAL-Nov09
# uncertainties: n
# # energies =    81
#   E(MeV)       xs(mb) 
 1.16313E+00    0.00000E+00
 1.20000E+00    7.91510E+00
 1.27273E+00    2.30778E+01
 1.28801E+00    2.58859E+01
 1.29371E+00    2.69816E+01
 1.29482E+00    2.71783E+01
 1.29679E+00    2.71668E+01
 1.30000E+00    2.74542E+01
 1.35827E+00    3.60755E+01
 1.36724E+00    3.72612E+01
 1.39520E+00    4.05370E+01
 1.40000E+00    4.07107E+01
 1.40778E+00    4.14487E+01
 1.41735E+00    4.17502E+01
 1.43704E+00    4.34639E+01
 1.44761E+00    4.44988E+01
 1.46594E+00    4.63393E+01
 1.49889E+00    4.94612E+01
 1.50000E+00    4.95655E+01
 1.52800E+00    5.21510E+01
 1.53193E+00    5.23720E+01
 1.54483E+00    5.31797E+01
 1.56641E+00    5.41230E+01
 1.59675E+00    5.57472E+01
 1.60000E+00    5.59378E+01
 1.60443E+00    5.62052E+01
 1.61390E+00    5.67846E+01
 1.61698E+00    5.68913E+01
 1.61800E+00    5.69415E+01
 1.62416E+00    5.71443E+01
 1.62747E+00    5.72907E+01
 1.65362E+00    5.85667E+01
 1.66128E+00    5.85716E+01
 1.66237E+00    5.84962E+01
 1.66409E+00    5.84287E+01
 1.66543E+00    5.83659E+01
 1.68667E+00    5.82889E+01
 1.70000E+00    5.81892E+01
 1.70505E+00    5.82428E+01
 1.71891E+00    5.83353E+01
 1.80000E+00    6.02845E+01
 1.90000E+00    6.20576E+01
 2.00000E+00    6.13650E+01
 2.25000E+00    5.07869E+01
 2.50000E+00    4.20972E+01
 2.75000E+00    3.08008E+01
 3.00000E+00    2.36480E+01
 3.50000E+00    1.22148E+01
 4.00000E+00    6.15807E+00
 4.50000E+00    3.15637E+00
 5.00000E+00    1.72375E+00
 5.50000E+00    1.05267E+00
 6.00000E+00    7.36291E-01
 6.50000E+00    5.80046E-01
 7.00000E+00    4.94989E-01
 7.50000E+00    4.42084E-01
 8.00000E+00    4.04436E-01
 8.50000E+00    3.74642E-01
 9.00000E+00    3.49421E-01
 9.50000E+00    3.27257E-01
 1.00000E+01    3.07366E-01
 1.05000E+01    2.89600E-01
 1.10000E+01    2.73126E-01
 1.15000E+01    2.58260E-01
 1.20000E+01    2.44392E-01
 1.25000E+01    2.31751E-01
 1.30000E+01    2.19941E-01
 1.35000E+01    2.09084E-01
 1.40000E+01    1.98927E-01
 1.45000E+01    1.89539E-01
 1.50000E+01    1.80754E-01
 1.55000E+01    1.72644E-01
 1.60000E+01    1.65112E-01
 1.65000E+01    1.57890E-01
 1.70000E+01    1.51477E-01
 1.75000E+01    1.45318E-01
 1.80000E+01    1.39341E-01
 1.85000E+01    1.33596E-01
 1.90000E+01    1.28665E-01
 1.95000E+01    1.23981E-01
 2.00000E+01    1.19509E-01
