# n + Dy160 : (n,n'27)  
# jendl4.0   N.Iwamoto,S.Chiba                 EVAL-Nov09
# uncertainties: n
# # energies =    56
#   E(MeV)       xs(mb) 
 1.60443E+00    0.00000E+00
 1.61390E+00    1.29469E-01
 1.61698E+00    1.55688E-01
 1.61800E+00    1.64324E-01
 1.62416E+00    2.15118E-01
 1.62747E+00    2.42828E-01
 1.65362E+00    4.62938E-01
 1.66128E+00    5.27520E-01
 1.66237E+00    5.36634E-01
 1.66409E+00    5.49222E-01
 1.66543E+00    5.58150E-01
 1.68667E+00    7.18595E-01
 1.70000E+00    8.21048E-01
 1.70505E+00    8.60484E-01
 1.71891E+00    9.56850E-01
 1.80000E+00    1.57019E+00
 1.90000E+00    2.34008E+00
 2.00000E+00    3.05127E+00
 2.25000E+00    4.17580E+00
 2.50000E+00    4.95381E+00
 2.75000E+00    4.69553E+00
 3.00000E+00    4.41411E+00
 3.50000E+00    3.05052E+00
 4.00000E+00    1.85572E+00
 4.50000E+00    1.04948E+00
 5.00000E+00    5.79681E-01
 5.50000E+00    3.26722E-01
 6.00000E+00    1.96659E-01
 6.50000E+00    1.31416E-01
 7.00000E+00    9.85116E-02
 7.50000E+00    8.12233E-02
 8.00000E+00    7.12643E-02
 8.50000E+00    6.47347E-02
 9.00000E+00    5.98855E-02
 9.50000E+00    5.59405E-02
 1.00000E+01    5.25416E-02
 1.05000E+01    4.95622E-02
 1.10000E+01    4.68192E-02
 1.15000E+01    4.43461E-02
 1.20000E+01    4.20406E-02
 1.25000E+01    3.99315E-02
 1.30000E+01    3.79577E-02
 1.35000E+01    3.61389E-02
 1.40000E+01    3.44321E-02
 1.45000E+01    3.28509E-02
 1.50000E+01    3.13669E-02
 1.55000E+01    2.99816E-02
 1.60000E+01    2.87106E-02
 1.65000E+01    2.74813E-02
 1.70000E+01    2.63878E-02
 1.75000E+01    2.53307E-02
 1.80000E+01    2.43159E-02
 1.85000E+01    2.33302E-02
 1.90000E+01    2.24737E-02
 1.95000E+01    2.16771E-02
 2.00000E+01    2.09155E-02
