# n + Dy160 : (n,n'22)  
# jendl4.0   N.Iwamoto,S.Chiba                 EVAL-Nov09
# uncertainties: n
# # energies =    62
#   E(MeV)       xs(mb) 
 1.52800E+00    0.00000E+00
 1.53193E+00    1.38474E+01
 1.54483E+00    2.77871E+01
 1.56641E+00    4.15580E+01
 1.59675E+00    5.48009E+01
 1.60000E+00    5.60418E+01
 1.60443E+00    5.76564E+01
 1.61390E+00    6.08076E+01
 1.61698E+00    6.17929E+01
 1.61800E+00    6.21176E+01
 1.62416E+00    6.40226E+01
 1.62747E+00    6.50182E+01
 1.65362E+00    7.16912E+01
 1.66128E+00    7.32277E+01
 1.66237E+00    7.34100E+01
 1.66409E+00    7.37144E+01
 1.66543E+00    7.39510E+01
 1.68667E+00    7.75204E+01
 1.70000E+00    7.94847E+01
 1.70505E+00    8.02137E+01
 1.71891E+00    8.21240E+01
 1.80000E+00    8.89136E+01
 1.90000E+00    9.13349E+01
 2.00000E+00    8.83280E+01
 2.25000E+00    6.99918E+01
 2.50000E+00    5.59391E+01
 2.75000E+00    3.97040E+01
 3.00000E+00    2.88455E+01
 3.50000E+00    1.33913E+01
 4.00000E+00    5.98941E+00
 4.50000E+00    2.67249E+00
 5.00000E+00    1.22627E+00
 5.50000E+00    6.02505E-01
 6.00000E+00    3.34202E-01
 6.50000E+00    2.17449E-01
 7.00000E+00    1.64332E-01
 7.50000E+00    1.37914E-01
 8.00000E+00    1.22746E-01
 8.50000E+00    1.12480E-01
 9.00000E+00    1.04547E-01
 9.50000E+00    9.78891E-02
 1.00000E+01    9.20380E-02
 1.05000E+01    8.68518E-02
 1.10000E+01    8.20486E-02
 1.15000E+01    7.77057E-02
 1.20000E+01    7.36532E-02
 1.25000E+01    6.99420E-02
 1.30000E+01    6.64712E-02
 1.35000E+01    6.32678E-02
 1.40000E+01    6.02634E-02
 1.45000E+01    5.74812E-02
 1.50000E+01    5.48712E-02
 1.55000E+01    5.24380E-02
 1.60000E+01    5.02049E-02
 1.65000E+01    4.80515E-02
 1.70000E+01    4.61214E-02
 1.75000E+01    4.42853E-02
 1.80000E+01    4.24943E-02
 1.85000E+01    4.07664E-02
 1.90000E+01    3.92764E-02
 1.95000E+01    3.78691E-02
 2.00000E+01    3.65322E-02
