# n + Dy160 : (n,n'05)  
# jendl4.0   N.Iwamoto,S.Chiba                 EVAL-Nov09
# uncertainties: n
# # energies =    85
#   E(MeV)       xs(mb) 
 9.72948E-01    0.00000E+00
 1.00000E+00    1.39198E-05
 1.05572E+00    1.82829E-04
 1.10000E+00    5.10599E-04
 1.16313E+00    1.59715E-03
 1.20000E+00    2.72858E-03
 1.27273E+00    7.99373E-03
 1.28801E+00    9.48146E-03
 1.29371E+00    1.00675E-02
 1.29482E+00    1.01854E-02
 1.29679E+00    1.03936E-02
 1.30000E+00    1.07003E-02
 1.35827E+00    1.78937E-02
 1.36724E+00    1.92351E-02
 1.39520E+00    2.37958E-02
 1.40000E+00    2.45517E-02
 1.40778E+00    2.59214E-02
 1.41735E+00    2.76905E-02
 1.43704E+00    3.07070E-02
 1.44761E+00    3.27422E-02
 1.46594E+00    3.60540E-02
 1.49889E+00    4.32324E-02
 1.50000E+00    4.34963E-02
 1.52800E+00    5.59006E-02
 1.53193E+00    5.77193E-02
 1.54483E+00    6.35795E-02
 1.56641E+00    7.36588E-02
 1.59675E+00    8.88933E-02
 1.60000E+00    9.00097E-02
 1.60443E+00    9.20530E-02
 1.61390E+00    9.59405E-02
 1.61698E+00    9.72691E-02
 1.61800E+00    9.75879E-02
 1.62416E+00    1.00069E-01
 1.62747E+00    1.01489E-01
 1.65362E+00    1.13207E-01
 1.66128E+00    1.16907E-01
 1.66237E+00    1.17365E-01
 1.66409E+00    1.18074E-01
 1.66543E+00    1.18596E-01
 1.68667E+00    1.28103E-01
 1.70000E+00    1.34268E-01
 1.70505E+00    1.36721E-01
 1.71891E+00    1.43360E-01
 1.80000E+00    1.88492E-01
 1.90000E+00    2.52260E-01
 2.00000E+00    3.19399E-01
 2.25000E+00    6.32155E-01
 2.50000E+00    9.78139E-01
 2.75000E+00    1.46119E+00
 3.00000E+00    2.07685E+00
 3.50000E+00    3.15202E+00
 4.00000E+00    4.13691E+00
 4.50000E+00    4.90430E+00
 5.00000E+00    5.42032E+00
 5.50000E+00    5.76149E+00
 6.00000E+00    6.03893E+00
 6.50000E+00    6.30151E+00
 7.00000E+00    6.51821E+00
 7.50000E+00    6.63209E+00
 8.00000E+00    6.61442E+00
 8.50000E+00    6.47888E+00
 9.00000E+00    6.26401E+00
 9.50000E+00    6.00912E+00
 1.00000E+01    5.74274E+00
 1.05000E+01    5.48682E+00
 1.10000E+01    5.23116E+00
 1.15000E+01    5.00531E+00
 1.20000E+01    4.77966E+00
 1.25000E+01    4.59062E+00
 1.30000E+01    4.40174E+00
 1.35000E+01    4.24917E+00
 1.40000E+01    4.09673E+00
 1.45000E+01    3.96996E+00
 1.50000E+01    3.84330E+00
 1.55000E+01    3.72731E+00
 1.60000E+01    3.61146E+00
 1.65000E+01    3.49743E+00
 1.70000E+01    3.38296E+00
 1.75000E+01    3.26838E+00
 1.80000E+01    3.15386E+00
 1.85000E+01    3.03968E+00
 1.90000E+01    2.92498E+00
 1.95000E+01    2.81125E+00
 2.00000E+01    2.69774E+00
