# n + Dy160 : (n,n'03)  
# jendl4.0   N.Iwamoto,S.Chiba                 EVAL-Nov09
# uncertainties: n
# # energies =    91
#   E(MeV)       xs(mb) 
 5.84727E-01    0.00000E+00
 6.00000E-01    3.53448E-03
 7.00000E-01    1.04973E-01
 8.00000E-01    4.83281E-01
 9.00000E-01    1.38380E+00
 9.72263E-01    2.50740E+00
 9.72948E-01    2.51905E+00
 1.00000E+00    3.02389E+00
 1.05572E+00    4.31460E+00
 1.10000E+00    5.37180E+00
 1.16313E+00    7.14090E+00
 1.20000E+00    7.96192E+00
 1.27273E+00    1.04553E+01
 1.28801E+00    1.09803E+01
 1.29371E+00    1.11889E+01
 1.29482E+00    1.12303E+01
 1.29679E+00    1.12280E+01
 1.30000E+00    1.12228E+01
 1.35827E+00    1.29330E+01
 1.36724E+00    1.32232E+01
 1.39520E+00    1.41181E+01
 1.40000E+00    1.41937E+01
 1.40778E+00    1.44041E+01
 1.41735E+00    1.45517E+01
 1.43704E+00    1.49900E+01
 1.44761E+00    1.52614E+01
 1.46594E+00    1.57506E+01
 1.49889E+00    1.66958E+01
 1.50000E+00    1.67287E+01
 1.52800E+00    1.77134E+01
 1.53193E+00    1.78457E+01
 1.54483E+00    1.81330E+01
 1.56641E+00    1.86609E+01
 1.59675E+00    1.95482E+01
 1.60000E+00    1.96285E+01
 1.60443E+00    1.97517E+01
 1.61390E+00    2.00025E+01
 1.61698E+00    2.00179E+01
 1.61800E+00    2.00357E+01
 1.62416E+00    2.00701E+01
 1.62747E+00    2.01255E+01
 1.65362E+00    2.06854E+01
 1.66128E+00    2.07861E+01
 1.66237E+00    2.07827E+01
 1.66409E+00    2.07583E+01
 1.66543E+00    2.07249E+01
 1.68667E+00    2.07919E+01
 1.70000E+00    2.09088E+01
 1.70505E+00    2.09788E+01
 1.71891E+00    2.11027E+01
 1.80000E+00    2.26997E+01
 1.90000E+00    2.47179E+01
 2.00000E+00    2.63800E+01
 2.25000E+00    2.84040E+01
 2.50000E+00    3.09296E+01
 2.75000E+00    3.10537E+01
 3.00000E+00    3.19471E+01
 3.50000E+00    3.21070E+01
 4.00000E+00    3.21768E+01
 4.50000E+00    3.23370E+01
 5.00000E+00    3.24813E+01
 5.50000E+00    3.23728E+01
 6.00000E+00    3.18512E+01
 6.50000E+00    3.09332E+01
 7.00000E+00    2.97681E+01
 7.50000E+00    2.85268E+01
 8.00000E+00    2.73174E+01
 8.50000E+00    2.61746E+01
 9.00000E+00    2.50942E+01
 9.50000E+00    2.40672E+01
 1.00000E+01    2.30945E+01
 1.05000E+01    2.22164E+01
 1.10000E+01    2.13384E+01
 1.15000E+01    2.05885E+01
 1.20000E+01    1.98386E+01
 1.25000E+01    1.91851E+01
 1.30000E+01    1.85316E+01
 1.35000E+01    1.79386E+01
 1.40000E+01    1.73455E+01
 1.45000E+01    1.67942E+01
 1.50000E+01    1.62429E+01
 1.55000E+01    1.57276E+01
 1.60000E+01    1.52123E+01
 1.65000E+01    1.47286E+01
 1.70000E+01    1.42449E+01
 1.75000E+01    1.37891E+01
 1.80000E+01    1.33332E+01
 1.85000E+01    1.29061E+01
 1.90000E+01    1.24789E+01
 1.95000E+01    1.20854E+01
 2.00000E+01    1.16919E+01
