# n + Dy160 : (n,n'23)  
# jendl4.0   N.Iwamoto,S.Chiba                 EVAL-Nov09
# uncertainties: n
# # energies =    61
#   E(MeV)       xs(mb) 
 1.53193E+00    0.00000E+00
 1.54483E+00    2.51286E+00
 1.56641E+00    5.22035E+00
 1.59675E+00    8.90683E+00
 1.60000E+00    9.29301E+00
 1.60443E+00    9.82008E+00
 1.61390E+00    1.08959E+01
 1.61698E+00    1.12009E+01
 1.61800E+00    1.13092E+01
 1.62416E+00    1.19139E+01
 1.62747E+00    1.22558E+01
 1.65362E+00    1.48065E+01
 1.66128E+00    1.54042E+01
 1.66237E+00    1.54561E+01
 1.66409E+00    1.55394E+01
 1.66543E+00    1.55982E+01
 1.68667E+00    1.68926E+01
 1.70000E+00    1.76465E+01
 1.70505E+00    1.79605E+01
 1.71891E+00    1.87682E+01
 1.80000E+00    2.31644E+01
 1.90000E+00    2.76375E+01
 2.00000E+00    3.04960E+01
 2.25000E+00    3.08477E+01
 2.50000E+00    2.93526E+01
 2.75000E+00    2.35136E+01
 3.00000E+00    1.88403E+01
 3.50000E+00    1.01163E+01
 4.00000E+00    5.00864E+00
 4.50000E+00    2.38433E+00
 5.00000E+00    1.12140E+00
 5.50000E+00    5.36130E-01
 6.00000E+00    2.72115E-01
 6.50000E+00    1.54935E-01
 7.00000E+00    1.02592E-01
 7.50000E+00    7.83724E-02
 8.00000E+00    6.61428E-02
 8.50000E+00    5.90217E-02
 9.00000E+00    5.41697E-02
 9.50000E+00    5.04190E-02
 1.00000E+01    4.72719E-02
 1.05000E+01    4.45481E-02
 1.10000E+01    4.20570E-02
 1.15000E+01    3.98183E-02
 1.20000E+01    3.77358E-02
 1.25000E+01    3.58313E-02
 1.30000E+01    3.40499E-02
 1.35000E+01    3.24087E-02
 1.40000E+01    3.08698E-02
 1.45000E+01    2.94448E-02
 1.50000E+01    2.81081E-02
 1.55000E+01    2.68629E-02
 1.60000E+01    2.57183E-02
 1.65000E+01    2.46163E-02
 1.70000E+01    2.36271E-02
 1.75000E+01    2.26876E-02
 1.80000E+01    2.17697E-02
 1.85000E+01    2.08841E-02
 1.90000E+01    2.01218E-02
 1.95000E+01    1.94006E-02
 2.00000E+01    1.87154E-02
