# n + Dy160 : (n,n'15)  
# jendl4.0   N.Iwamoto,S.Chiba                 EVAL-Nov09
# uncertainties: n
# # energies =    71
#   E(MeV)       xs(mb) 
 1.39520E+00    0.00000E+00
 1.40000E+00    4.96321E+00
 1.40778E+00    8.03076E+00
 1.41735E+00    1.06303E+01
 1.43704E+00    1.51452E+01
 1.44761E+00    1.73336E+01
 1.46594E+00    2.07449E+01
 1.49889E+00    2.61183E+01
 1.50000E+00    2.62781E+01
 1.52800E+00    3.00437E+01
 1.53193E+00    3.03869E+01
 1.54483E+00    3.16102E+01
 1.56641E+00    3.32288E+01
 1.59675E+00    3.57758E+01
 1.60000E+00    3.59959E+01
 1.60443E+00    3.62959E+01
 1.61390E+00    3.69358E+01
 1.61698E+00    3.70955E+01
 1.61800E+00    3.71563E+01
 1.62416E+00    3.74615E+01
 1.62747E+00    3.76431E+01
 1.65362E+00    3.90909E+01
 1.66128E+00    3.92767E+01
 1.66237E+00    3.92378E+01
 1.66409E+00    3.92311E+01
 1.66543E+00    3.92246E+01
 1.68667E+00    3.96722E+01
 1.70000E+00    3.97927E+01
 1.70505E+00    3.98658E+01
 1.71891E+00    4.00302E+01
 1.80000E+00    4.19335E+01
 1.90000E+00    4.35704E+01
 2.00000E+00    4.35615E+01
 2.25000E+00    3.75876E+01
 2.50000E+00    3.25764E+01
 2.75000E+00    2.46931E+01
 3.00000E+00    1.91893E+01
 3.50000E+00    1.00807E+01
 4.00000E+00    4.98884E+00
 4.50000E+00    2.41363E+00
 5.00000E+00    1.18178E+00
 5.50000E+00    6.09599E-01
 6.00000E+00    3.47756E-01
 6.50000E+00    2.27772E-01
 7.00000E+00    1.71022E-01
 7.50000E+00    1.42215E-01
 8.00000E+00    1.25687E-01
 8.50000E+00    1.14664E-01
 9.00000E+00    1.06286E-01
 9.50000E+00    9.93406E-02
 1.00000E+01    9.32842E-02
 1.05000E+01    8.79420E-02
 1.10000E+01    8.30123E-02
 1.15000E+01    7.85664E-02
 1.20000E+01    7.44234E-02
 1.25000E+01    7.06366E-02
 1.30000E+01    6.70981E-02
 1.35000E+01    6.38393E-02
 1.40000E+01    6.07858E-02
 1.45000E+01    5.79598E-02
 1.50000E+01    5.53109E-02
 1.55000E+01    5.28427E-02
 1.60000E+01    5.05829E-02
 1.65000E+01    4.83911E-02
 1.70000E+01    4.64428E-02
 1.75000E+01    4.45748E-02
 1.80000E+01    4.27653E-02
 1.85000E+01    4.10210E-02
 1.90000E+01    3.95108E-02
 1.95000E+01    3.80871E-02
 2.00000E+01    3.67356E-02
