# n + Dy160 : (n,n'11)  
# jendl4.0   N.Iwamoto,S.Chiba                 EVAL-Nov09
# uncertainties: n
# # energies =    76
#   E(MeV)       xs(mb) 
 1.29483E+00    0.00000E+00
 1.29679E+00    6.54805E+00
 1.30000E+00    1.05848E+01
 1.35827E+00    4.70192E+01
 1.36724E+00    5.09738E+01
 1.39520E+00    6.20821E+01
 1.40000E+00    6.34273E+01
 1.40778E+00    6.59271E+01
 1.41735E+00    6.82168E+01
 1.43704E+00    7.32440E+01
 1.44761E+00    7.57222E+01
 1.46594E+00    7.98732E+01
 1.49889E+00    8.68661E+01
 1.50000E+00    8.70203E+01
 1.52800E+00    9.09974E+01
 1.53193E+00    9.09961E+01
 1.54483E+00    9.20479E+01
 1.56641E+00    9.35552E+01
 1.59675E+00    9.57698E+01
 1.60000E+00    9.59575E+01
 1.60443E+00    9.62150E+01
 1.61390E+00    9.67780E+01
 1.61698E+00    9.69167E+01
 1.61800E+00    9.69699E+01
 1.62416E+00    9.72288E+01
 1.62747E+00    9.73819E+01
 1.65362E+00    9.86128E+01
 1.66128E+00    9.85114E+01
 1.66237E+00    9.84349E+01
 1.66409E+00    9.83876E+01
 1.66543E+00    9.83538E+01
 1.68667E+00    9.83931E+01
 1.70000E+00    9.81916E+01
 1.70505E+00    9.81436E+01
 1.71891E+00    9.79908E+01
 1.80000E+00    9.81604E+01
 1.90000E+00    9.64116E+01
 2.00000E+00    9.12222E+01
 2.25000E+00    6.97133E+01
 2.50000E+00    5.47002E+01
 2.75000E+00    3.83863E+01
 3.00000E+00    2.75263E+01
 3.50000E+00    1.30223E+01
 4.00000E+00    5.91023E+00
 4.50000E+00    2.61493E+00
 5.00000E+00    1.13763E+00
 5.50000E+00    4.89341E-01
 6.00000E+00    2.10113E-01
 6.50000E+00    9.18851E-02
 7.00000E+00    4.23808E-02
 7.50000E+00    2.18439E-02
 8.00000E+00    1.32577E-02
 8.50000E+00    9.50255E-03
 9.00000E+00    7.70847E-03
 9.50000E+00    6.73253E-03
 1.00000E+01    6.11461E-03
 1.05000E+01    5.67058E-03
 1.10000E+01    5.30865E-03
 1.15000E+01    5.00293E-03
 1.20000E+01    4.72790E-03
 1.25000E+01    4.48128E-03
 1.30000E+01    4.25304E-03
 1.35000E+01    4.04403E-03
 1.40000E+01    3.84884E-03
 1.45000E+01    3.66853E-03
 1.50000E+01    3.49977E-03
 1.55000E+01    3.34258E-03
 1.60000E+01    3.19925E-03
 1.65000E+01    3.05965E-03
 1.70000E+01    2.93555E-03
 1.75000E+01    2.81774E-03
 1.80000E+01    2.70240E-03
 1.85000E+01    2.59135E-03
 1.90000E+01    2.49599E-03
 1.95000E+01    2.40593E-03
 2.00000E+01    2.31974E-03
