# n + Dy160 : (n,t)     
# jendl4.0   N.Iwamoto,S.Chiba                 EVAL-Nov09
# uncertainties: n
# # energies =    65
#   E(MeV)       xs(mb) 
 7.12399E+00    0.00000E+00
 7.17937E+00    1.43570E-24
 7.20439E+00    2.32360E-24
 7.23498E+00    3.58080E-24
 7.24022E+00    3.80590E-24
 7.25310E+00    4.37350E-24
 7.29244E+00    6.18670E-24
 7.30402E+00    6.72230E-24
 7.33310E+00    8.07050E-24
 7.34266E+00    8.51430E-24
 7.36751E+00    9.66890E-24
 7.40636E+00    1.14760E-23
 7.42437E+00    1.23130E-23
 7.44862E+00    1.34410E-23
 7.45003E+00    1.35070E-23
 7.46422E+00    1.41660E-23
 7.48606E+00    1.51820E-23
 7.49753E+00    1.57160E-23
 7.50749E+00    3.20700E-23
 7.51484E+00    5.30160E-23
 7.53255E+00    1.26560E-22
 7.53466E+00    1.37240E-22
 7.54593E+00    2.00230E-22
 7.56576E+00    3.31180E-22
 7.57119E+00    3.69820E-22
 7.58779E+00    4.94380E-22
 7.59665E+00    5.62530E-22
 7.61104E+00    6.74900E-22
 7.61436E+00    7.01070E-22
 7.62251E+00    7.65720E-22
 7.63308E+00    8.50260E-22
 7.65834E+00    1.05480E-21
 7.66337E+00    1.09580E-21
 7.66739E+00    1.12860E-21
 7.68349E+00    1.26040E-21
 7.69859E+00    1.38440E-21
 7.71469E+00    1.51670E-21
 7.71771E+00    1.54150E-21
 7.72928E+00    1.63660E-21
 7.73794E+00    1.70780E-21
 7.74085E+00    1.73180E-21
 8.50000E+00    7.97660E-21
 9.00000E+00    2.15740E-17
 9.50000E+00    8.37560E-14
 1.00000E+01    2.73370E-11
 1.05000E+01    1.97390E-09
 1.10000E+01    5.31200E-08
 1.15000E+01    7.24070E-07
 1.20000E+01    6.05918E-06
 1.25000E+01    3.53480E-05
 1.30000E+01    1.37246E-04
 1.35000E+01    5.05868E-04
 1.40000E+01    1.55292E-03
 1.45000E+01    4.29580E-03
 1.50000E+01    9.77633E-03
 1.55000E+01    1.95285E-02
 1.60000E+01    3.57332E-02
 1.65000E+01    6.01995E-02
 1.70000E+01    9.25469E-02
 1.75000E+01    1.34535E-01
 1.80000E+01    1.86026E-01
 1.85000E+01    2.46573E-01
 1.90000E+01    3.13655E-01
 1.95000E+01    3.89928E-01
 2.00000E+01    4.70551E-01
