# n + Dy160 : (n,n'12)  
# jendl4.0   N.Iwamoto,S.Chiba                 EVAL-Nov09
# uncertainties: n
# # energies =    75
#   E(MeV)       xs(mb) 
 1.29679E+00    0.00000E+00
 1.30000E+00    6.99369E-01
 1.35827E+00    5.17497E+00
 1.36724E+00    5.82379E+00
 1.39520E+00    7.77391E+00
 1.40000E+00    7.99122E+00
 1.40778E+00    8.43175E+00
 1.41735E+00    8.85174E+00
 1.43704E+00    9.81976E+00
 1.44761E+00    1.03274E+01
 1.46594E+00    1.12176E+01
 1.49889E+00    1.28545E+01
 1.50000E+00    1.29035E+01
 1.52800E+00    1.41113E+01
 1.53193E+00    1.42649E+01
 1.54483E+00    1.46952E+01
 1.56641E+00    1.52749E+01
 1.59675E+00    1.63432E+01
 1.60000E+00    1.64375E+01
 1.60443E+00    1.65739E+01
 1.61390E+00    1.68613E+01
 1.61698E+00    1.69125E+01
 1.61800E+00    1.69375E+01
 1.62416E+00    1.70377E+01
 1.62747E+00    1.71129E+01
 1.65362E+00    1.77760E+01
 1.66128E+00    1.78630E+01
 1.66237E+00    1.78392E+01
 1.66409E+00    1.78202E+01
 1.66543E+00    1.78003E+01
 1.68667E+00    1.79400E+01
 1.70000E+00    1.80050E+01
 1.70505E+00    1.80558E+01
 1.71891E+00    1.81600E+01
 1.80000E+00    1.95817E+01
 1.90000E+00    2.13239E+01
 2.00000E+00    2.23042E+01
 2.25000E+00    2.10832E+01
 2.50000E+00    1.96478E+01
 2.75000E+00    1.57709E+01
 3.00000E+00    1.29234E+01
 3.50000E+00    7.42658E+00
 4.00000E+00    3.96880E+00
 4.50000E+00    2.06016E+00
 5.00000E+00    1.08218E+00
 5.50000E+00    6.03756E-01
 6.00000E+00    3.75583E-01
 6.50000E+00    2.66441E-01
 7.00000E+00    2.11821E-01
 7.50000E+00    1.81943E-01
 8.00000E+00    1.63324E-01
 8.50000E+00    1.50013E-01
 9.00000E+00    1.39426E-01
 9.50000E+00    1.30429E-01
 1.00000E+01    1.22489E-01
 1.05000E+01    1.15448E-01
 1.10000E+01    1.08938E-01
 1.15000E+01    1.03067E-01
 1.20000E+01    9.75924E-02
 1.25000E+01    9.25946E-02
 1.30000E+01    8.79247E-02
 1.35000E+01    8.36271E-02
 1.40000E+01    7.96027E-02
 1.45000E+01    7.58799E-02
 1.50000E+01    7.23930E-02
 1.55000E+01    6.91418E-02
 1.60000E+01    6.61768E-02
 1.65000E+01    6.32920E-02
 1.70000E+01    6.07244E-02
 1.75000E+01    5.82898E-02
 1.80000E+01    5.59031E-02
 1.85000E+01    5.36055E-02
 1.90000E+01    5.16321E-02
 1.95000E+01    4.97712E-02
 2.00000E+01    4.79877E-02
