# n + Dy160 : (n,n'09)  
# jendl4.0   N.Iwamoto,S.Chiba                 EVAL-Nov09
# uncertainties: n
# # energies =    78
#   E(MeV)       xs(mb) 
 1.28801E+00    0.00000E+00
 1.29371E+00    1.45661E+01
 1.29482E+00    1.57666E+01
 1.29679E+00    1.76352E+01
 1.30000E+00    2.02120E+01
 1.35827E+00    4.39608E+01
 1.36724E+00    4.61941E+01
 1.39520E+00    5.12537E+01
 1.40000E+00    5.19761E+01
 1.40778E+00    5.30942E+01
 1.41735E+00    5.43839E+01
 1.43704E+00    5.63770E+01
 1.44761E+00    5.73274E+01
 1.46594E+00    5.88110E+01
 1.49889E+00    5.91718E+01
 1.50000E+00    5.88954E+01
 1.52800E+00    5.84138E+01
 1.53193E+00    5.83617E+01
 1.54483E+00    5.82536E+01
 1.56641E+00    5.81053E+01
 1.59675E+00    5.66636E+01
 1.60000E+00    5.65623E+01
 1.60443E+00    5.64317E+01
 1.61390E+00    5.61678E+01
 1.61698E+00    5.60855E+01
 1.61800E+00    5.60592E+01
 1.62416E+00    5.59042E+01
 1.62747E+00    5.58225E+01
 1.65362E+00    5.52637E+01
 1.66128E+00    5.51137E+01
 1.66237E+00    5.50930E+01
 1.66409E+00    5.50608E+01
 1.66543E+00    5.50359E+01
 1.68667E+00    5.47024E+01
 1.70000E+00    5.44148E+01
 1.70505E+00    5.43160E+01
 1.71891E+00    5.40497E+01
 1.80000E+00    5.17035E+01
 1.90000E+00    4.87222E+01
 2.00000E+00    4.44570E+01
 2.25000E+00    3.18408E+01
 2.50000E+00    2.30677E+01
 2.75000E+00    1.51148E+01
 3.00000E+00    1.01452E+01
 3.50000E+00    4.28967E+00
 4.00000E+00    1.82221E+00
 4.50000E+00    7.99785E-01
 5.00000E+00    3.73098E-01
 5.50000E+00    1.93351E-01
 6.00000E+00    1.16680E-01
 6.50000E+00    8.28827E-02
 7.00000E+00    6.67934E-02
 7.50000E+00    5.81039E-02
 8.00000E+00    5.25868E-02
 8.50000E+00    4.85209E-02
 9.00000E+00    4.52030E-02
 9.50000E+00    4.23360E-02
 1.00000E+01    3.97812E-02
 1.05000E+01    3.75046E-02
 1.10000E+01    3.53938E-02
 1.15000E+01    3.34874E-02
 1.20000E+01    3.17087E-02
 1.25000E+01    3.00844E-02
 1.30000E+01    2.85663E-02
 1.35000E+01    2.71693E-02
 1.40000E+01    2.58610E-02
 1.45000E+01    2.46508E-02
 1.50000E+01    2.35174E-02
 1.55000E+01    2.24629E-02
 1.60000E+01    2.14975E-02
 1.65000E+01    2.05604E-02
 1.70000E+01    1.97275E-02
 1.75000E+01    1.89334E-02
 1.80000E+01    1.81591E-02
 1.85000E+01    1.74136E-02
 1.90000E+01    1.67735E-02
 1.95000E+01    1.61659E-02
 2.00000E+01    1.55873E-02
