# n + Pd102 : (n,p)     
# jendl.ad   N.Iwamoto                         EVAL-Apr14
# uncertainties: n
# # energies =    80
#   E(MeV)       xs(mb) 
 3.71364E-01    0.00000E+00
 5.13507E-01    1.25950E-09
 1.40000E+00    9.46600E-09
 1.50000E+00    1.09280E-07
 1.54966E+00    2.81170E-07
 1.60000E+00    6.27100E-07
 1.60890E+00    7.17510E-07
 1.67451E+00    1.83463E-06
 1.70000E+00    2.59455E-06
 1.73198E+00    3.94880E-06
 1.80000E+00    9.18792E-06
 1.90000E+00    2.93561E-05
 1.93799E+00    4.45859E-05
 1.96370E+00    5.77623E-05
 2.00000E+00    8.12315E-05
 2.13225E+00    2.69678E-04
 2.13255E+00    2.70392E-04
 2.15918E+00    3.38281E-04
 2.25000E+00    7.07699E-04
 2.27096E+00    8.34340E-04
 2.31724E+00    1.17082E-03
 2.32405E+00    1.22986E-03
 2.36613E+00    1.66183E-03
 2.41477E+00    2.29740E-03
 2.45557E+00    2.96720E-03
 2.49882E+00    3.85237E-03
 2.50000E+00    3.87552E-03
 2.50475E+00    3.98659E-03
 2.51454E+00    4.20504E-03
 2.55807E+00    5.39464E-03
 2.57140E+00    5.81034E-03
 2.57878E+00    6.04473E-03
 2.59978E+00    6.73995E-03
 2.60847E+00    7.01953E-03
 2.63230E+00    7.83831E-03
 2.63657E+00    7.98214E-03
 2.67754E+00    9.64101E-03
 2.68704E+00    1.00604E-02
 2.70148E+00    1.07237E-02
 2.72258E+00    1.17564E-02
 2.74319E+00    1.29877E-02
 2.75000E+00    1.33367E-02
 2.76409E+00    1.41201E-02
 2.79641E+00    1.61360E-02
 2.82660E+00    1.82695E-02
 3.00000E+00    3.82753E-02
 3.50000E+00    2.32746E-01
 4.00000E+00    9.02572E-01
 4.50000E+00    2.53525E+00
 5.00000E+00    5.62528E+00
 5.50000E+00    1.04453E+01
 6.00000E+00    1.68617E+01
 6.50000E+00    2.43340E+01
 7.00000E+00    3.21505E+01
 7.50000E+00    3.97589E+01
 8.00000E+00    4.69595E+01
 8.50000E+00    5.38554E+01
 9.00000E+00    6.01280E+01
 9.50000E+00    6.72749E+01
 1.00000E+01    7.47188E+01
 1.05000E+01    8.27366E+01
 1.10000E+01    9.11392E+01
 1.15000E+01    9.97945E+01
 1.20000E+01    1.07299E+02
 1.25000E+01    1.12402E+02
 1.30000E+01    1.13537E+02
 1.35000E+01    1.10118E+02
 1.40000E+01    1.02684E+02
 1.45000E+01    9.15255E+01
 1.50000E+01    7.92148E+01
 1.55000E+01    6.70548E+01
 1.60000E+01    5.68897E+01
 1.65000E+01    4.88551E+01
 1.70000E+01    4.22610E+01
 1.75000E+01    3.74101E+01
 1.80000E+01    3.37742E+01
 1.85000E+01    3.08910E+01
 1.90000E+01    2.90452E+01
 1.95000E+01    2.73881E+01
 2.00000E+01    2.59037E+01
