# n + Ba132 : (n,xn)    
# jendl.ad   N.Iwamoto                         EVAL-Apr14
# 
# # energies =   103
#   E(MeV)        xs(mb) 
 1.05000E-01    0.00000E+00
 1.10000E-01    1.18574E-03
 1.20000E-01    1.56040E-03
 1.30000E-01    1.75454E-03
 1.40000E-01    1.86188E-03
 1.50000E-01    1.93836E-03
 1.60000E-01    2.00272E-03
 1.70000E-01    2.07191E-03
 1.80000E-01    2.13591E-03
 1.90000E-01    2.19656E-03
 2.00000E-01    2.25358E-03
 2.25000E-01    1.20568E-02
 2.50000E-01    1.41769E-02
 2.75000E-01    1.56324E-02
 3.00000E-01    1.69124E-02
 4.00000E-01    5.99116E-02
 4.68060E-01    1.43155E-01
 5.00000E-01    4.56043E+02
 6.00000E-01    7.88582E+02
 7.00000E-01    1.03326E+03
 8.00000E-01    1.16835E+03
 9.00000E-01    1.26445E+03
 1.00000E+00    1.31978E+03
 1.03956E+00    1.33861E+03
 1.10000E+00    1.50075E+03
 1.13623E+00    1.53996E+03
 1.20000E+00    1.60678E+03
 1.30000E+00    1.67298E+03
 1.40000E+00    1.72203E+03
 1.50000E+00    1.75676E+03
 1.51513E+00    1.76048E+03
 1.52264E+00    1.77426E+03
 1.52265E+00    1.77425E+03
 1.60000E+00    1.84271E+03
 1.67300E+00    1.87354E+03
 1.69864E+00    1.89155E+03
 1.70000E+00    1.89817E+03
 1.74256E+00    1.93737E+03
 1.80000E+00    1.97114E+03
 1.90000E+00    2.00714E+03
 1.94668E+00    2.01901E+03
 1.95916E+00    2.02171E+03
 2.00000E+00    2.03298E+03
 2.01346E+00    2.03591E+03
 2.04244E+00    2.05394E+03
 2.06188E+00    2.06276E+03
 2.06213E+00    2.06390E+03
 2.08437E+00    2.08076E+03
 2.13580E+00    2.10686E+03
 2.23705E+00    2.13815E+03
 2.24284E+00    2.14041E+03
 2.25000E+00    2.14286E+03
 2.25782E+00    2.14526E+03
 2.28837E+00    2.15395E+03
 2.30548E+00    2.16071E+03
 2.33017E+00    2.17029E+03
 2.37565E+00    2.18269E+03
 2.39258E+00    2.18708E+03
 2.42440E+00    2.19569E+03
 2.44126E+00    2.20119E+03
 2.45758E+00    2.20539E+03
 2.47163E+00    2.20912E+03
 2.50000E+00    2.22004E+03
 2.50205E+00    2.22058E+03
 2.51141E+00    2.22295E+03
 2.52450E+00    2.22669E+03
 2.58696E+00    2.24480E+03
 2.75000E+00    2.27881E+03
 3.00000E+00    2.33435E+03
 3.50000E+00    2.40679E+03
 4.00000E+00    2.44545E+03
 4.50000E+00    2.45441E+03
 5.00000E+00    2.44948E+03
 5.50000E+00    2.43546E+03
 6.00000E+00    2.41921E+03
 6.50000E+00    2.40337E+03
 7.00000E+00    2.38865E+03
 7.50000E+00    2.37527E+03
 8.00000E+00    2.36209E+03
 8.50000E+00    2.34859E+03
 9.00000E+00    2.33406E+03
 9.50000E+00    2.31894E+03
 1.00000E+01    2.30609E+03
 1.05000E+01    2.49722E+03
 1.10000E+01    2.88065E+03
 1.15000E+01    3.24420E+03
 1.20000E+01    3.50099E+03
 1.25000E+01    3.66995E+03
 1.30000E+01    3.77524E+03
 1.35000E+01    3.83944E+03
 1.40000E+01    3.88222E+03
 1.45000E+01    3.90246E+03
 1.50000E+01    3.91093E+03
 1.55000E+01    3.90810E+03
 1.60000E+01    3.90618E+03
 1.65000E+01    3.89937E+03
 1.70000E+01    3.88940E+03
 1.75000E+01    3.87583E+03
 1.80000E+01    3.86839E+03
 1.85000E+01    3.85607E+03
 1.90000E+01    3.86636E+03
 1.95000E+01    3.90137E+03
 2.00000E+01    3.96769E+03
