# n + Ba132 : (n,d)     
# jendl.ad   N.Iwamoto                         EVAL-Apr14
# uncertainties: n
# # energies =    60
#   E(MeV)       xs(mb) 
 5.48105E+00    0.00000E+00
 5.56039E+00    1.23640E-19
 5.60580E+00    2.28770E-15
 5.61569E+00    2.87620E-15
 5.69879E+00    9.09010E-15
 5.75715E+00    1.35960E-14
 5.85715E+00    2.13950E-14
 5.98096E+00    3.10580E-14
 6.07057E+00    3.80520E-14
 6.08196E+00    3.91880E-14
 6.10197E+00    4.15030E-14
 6.10592E+00    4.19880E-14
 6.14370E+00    4.68220E-14
 6.18287E+00    5.20340E-14
 6.23679E+00    5.93050E-14
 6.25103E+00    6.12330E-14
 6.26226E+00    6.27570E-14
 6.40766E+00    8.25340E-14
 6.50000E+00    9.50940E-14
 6.53303E+00    1.22100E-13
 6.53674E+00    1.25320E-13
 6.63715E+00    2.16400E-13
 6.66067E+00    2.37850E-13
 6.70232E+00    2.75940E-13
 6.74849E+00    3.18190E-13
 6.77890E+00    3.46030E-13
 6.80012E+00    3.65460E-13
 6.80510E+00    3.70020E-13
 6.81528E+00    3.79340E-13
 6.83327E+00    3.95810E-13
 6.84641E+00    4.07850E-13
 6.87463E+00    4.33690E-13
 6.89623E+00    4.53470E-13
 7.00000E+00    5.48490E-13
 7.50000E+00    5.52240E-10
 8.00000E+00    5.40180E-08
 8.50000E+00    1.40154E-06
 9.00000E+00    1.88384E-05
 9.50000E+00    1.50937E-04
 1.00000E+01    8.60460E-04
 1.05000E+01    3.73695E-03
 1.10000E+01    1.29408E-02
 1.15000E+01    3.69788E-02
 1.20000E+01    8.95453E-02
 1.25000E+01    1.87912E-01
 1.30000E+01    3.48850E-01
 1.35000E+01    5.43753E-01
 1.40000E+01    8.47684E-01
 1.45000E+01    1.22889E+00
 1.50000E+01    1.68071E+00
 1.55000E+01    2.19590E+00
 1.60000E+01    2.79219E+00
 1.65000E+01    3.37268E+00
 1.70000E+01    4.02547E+00
 1.75000E+01    4.72263E+00
 1.80000E+01    5.36771E+00
 1.85000E+01    6.05003E+00
 1.90000E+01    6.76758E+00
 1.95000E+01    7.51787E+00
 2.00000E+01    8.16197E+00
