# n + Ba132 : (n,xa)    
# jendl.ad   N.Iwamoto                         EVAL-Apr14
# 
# # energies =   103
#   E(MeV)        xs(mb) 
 1.05000E-01    8.25958E-04
 1.10000E-01    8.30737E-04
 1.20000E-01    8.41111E-04
 1.30000E-01    8.53009E-04
 1.40000E-01    8.64907E-04
 1.50000E-01    8.79230E-04
 1.60000E-01    8.94579E-04
 1.70000E-01    9.18255E-04
 1.80000E-01    9.41931E-04
 1.90000E-01    9.66228E-04
 2.00000E-01    9.91639E-04
 2.25000E-01    1.05516E-03
 2.50000E-01    1.12000E-03
 2.75000E-01    1.21581E-03
 3.00000E-01    1.31928E-03
 4.00000E-01    1.79609E-03
 4.68060E-01    2.29678E-03
 5.00000E-01    1.75891E-03
 6.00000E-01    1.95811E-03
 7.00000E-01    2.43433E-03
 8.00000E-01    3.22166E-03
 9.00000E-01    4.30660E-03
 1.00000E+00    5.83166E-03
 1.03956E+00    6.57726E-03
 1.10000E+00    6.95788E-03
 1.13623E+00    7.51255E-03
 1.20000E+00    8.21285E-03
 1.30000E+00    1.02998E-02
 1.40000E+00    1.31707E-02
 1.50000E+00    1.70381E-02
 1.51513E+00    1.76889E-02
 1.52264E+00    1.78615E-02
 1.52265E+00    1.78618E-02
 1.60000E+00    2.04820E-02
 1.67300E+00    2.38376E-02
 1.69864E+00    2.53000E-02
 1.70000E+00    2.51791E-02
 1.74256E+00    2.66058E-02
 1.80000E+00    2.92650E-02
 1.90000E+00    3.56615E-02
 1.94668E+00    3.90980E-02
 1.95916E+00    4.01408E-02
 2.00000E+00    4.37273E-02
 2.01346E+00    4.48915E-02
 2.04244E+00    4.65053E-02
 2.06188E+00    4.75878E-02
 2.06213E+00    4.75250E-02
 2.08437E+00    4.81685E-02
 2.13580E+00    5.14359E-02
 2.23705E+00    6.07160E-02
 2.24284E+00    6.10782E-02
 2.25000E+00    6.15261E-02
 2.25782E+00    6.22316E-02
 2.28837E+00    6.49878E-02
 2.30548E+00    6.76342E-02
 2.33017E+00    6.95551E-02
 2.37565E+00    7.42015E-02
 2.39258E+00    7.59969E-02
 2.42440E+00    8.06846E-02
 2.44126E+00    8.24521E-02
 2.45758E+00    8.42095E-02
 2.47163E+00    8.57626E-02
 2.50000E+00    8.99279E-02
 2.50205E+00    9.02289E-02
 2.51141E+00    9.12524E-02
 2.52450E+00    9.26837E-02
 2.58696E+00    9.95133E-02
 2.75000E+00    1.28084E-01
 3.00000E+00    1.71827E-01
 3.50000E+00    3.04698E-01
 4.00000E+00    4.85602E-01
 4.50000E+00    7.19740E-01
 5.00000E+00    9.68714E-01
 5.50000E+00    1.23724E+00
 6.00000E+00    1.50864E+00
 6.50000E+00    1.75390E+00
 7.00000E+00    1.95062E+00
 7.50000E+00    2.09881E+00
 8.00000E+00    2.22933E+00
 8.50000E+00    2.40770E+00
 9.00000E+00    2.71454E+00
 9.50000E+00    3.24994E+00
 1.00000E+01    4.11202E+00
 1.05000E+01    4.75607E+00
 1.10000E+01    5.00721E+00
 1.15000E+01    5.30880E+00
 1.20000E+01    5.76160E+00
 1.25000E+01    6.36377E+00
 1.30000E+01    7.11552E+00
 1.35000E+01    7.99835E+00
 1.40000E+01    9.01975E+00
 1.45000E+01    1.00968E+01
 1.50000E+01    1.12391E+01
 1.55000E+01    1.24330E+01
 1.60000E+01    1.35855E+01
 1.65000E+01    1.48269E+01
 1.70000E+01    1.60302E+01
 1.75000E+01    1.71244E+01
 1.80000E+01    1.82400E+01
 1.85000E+01    1.93649E+01
 1.90000E+01    2.04188E+01
 1.95000E+01    2.15016E+01
 2.00000E+01    2.25432E+01
