# n + Am241 : (n,xn)    
# jendl4.0   O.Iwamoto,T.Nakagawa,T.Ohsawa,+   EVAL-JAN10
# 
# # energies =    77
#   E(MeV)        xs(mb) 
 4.13483E-02    0.00000E+00
 7.00000E-02    2.15916E+02
 9.40921E-02    3.18543E+02
 1.00000E-01    3.48706E+02
 1.15964E-01    4.13825E+02
 1.30000E-01    4.71101E+02
 1.58159E-01    5.65544E+02
 1.70000E-01    6.05603E+02
 2.00000E-01    7.03212E+02
 2.06745E-01    7.15130E+02
 2.06746E-01    7.15137E+02
 2.34658E-01    8.59209E+02
 2.36184E-01    8.64951E+02
 2.40000E-01    8.97302E+02
 2.74142E-01    1.10957E+03
 2.74343E-01    1.11055E+03
 3.00000E-01    1.23997E+03
 3.21138E-01    1.29140E+03
 3.21158E-01    1.29145E+03
 3.82695E-01    1.40311E+03
 4.00000E-01    1.43042E+03
 4.19930E-01    1.46069E+03
 4.54996E-01    1.51125E+03
 4.60921E-01    1.51950E+03
 4.73786E-01    1.53840E+03
 4.97071E-01    1.58816E+03
 5.00000E-01    1.59382E+03
 5.06562E-01    1.59763E+03
 5.27870E-01    1.62072E+03
 5.33121E-01    1.62499E+03
 5.33122E-01    1.62499E+03
 6.00000E-01    1.64404E+03
 7.00000E-01    1.62702E+03
 8.00000E-01    1.51483E+03
 9.00000E-01    1.39940E+03
 1.00000E+00    1.32306E+03
 1.30000E+00    1.28224E+03
 1.60000E+00    1.34916E+03
 1.80000E+00    1.39487E+03
 2.00000E+00    1.42729E+03
 2.30000E+00    1.44621E+03
 2.50000E+00    1.44108E+03
 2.70000E+00    1.42886E+03
 3.00000E+00    1.43932E+03
 3.50000E+00    1.41584E+03
 4.00000E+00    1.40200E+03
 4.50000E+00    1.39860E+03
 5.00000E+00    1.39987E+03
 5.50000E+00    1.39325E+03
 6.00000E+00    1.26674E+03
 6.50000E+00    1.04848E+03
 7.00000E+00    8.70010E+02
 7.50000E+00    7.73169E+02
 8.00000E+00    7.62641E+02
 8.50000E+00    8.07817E+02
 9.00000E+00    8.49946E+02
 9.50000E+00    8.90413E+02
 1.00000E+01    9.26874E+02
 1.05000E+01    9.37390E+02
 1.10000E+01    9.57963E+02
 1.15000E+01    9.61888E+02
 1.20000E+01    9.70554E+02
 1.25000E+01    9.68466E+02
 1.30000E+01    9.53633E+02
 1.35000E+01    9.17359E+02
 1.40000E+01    8.64559E+02
 1.45000E+01    8.05483E+02
 1.50000E+01    7.39655E+02
 1.55000E+01    6.85926E+02
 1.60000E+01    6.42227E+02
 1.65000E+01    5.98865E+02
 1.70000E+01    5.69069E+02
 1.75000E+01    5.46202E+02
 1.80000E+01    5.21905E+02
 1.85000E+01    5.08410E+02
 1.95000E+01    4.82954E+02
 2.00000E+01    4.68787E+02
