# n + W 182 : (n,n'08)  
# jendl4.0   N.Iwamoto                         EVAL-Feb10
# uncertainties: n
# # energies =    79
#   E(MeV)       xs(mb) 
 1.29631E+00    0.00000E+00
 1.30000E+00    2.85112E+01
 1.33851E+00    7.90769E+01
 1.38146E+00    1.08042E+02
 1.40000E+00    1.17064E+02
 1.45082E+00    1.41931E+02
 1.49576E+00    1.60426E+02
 1.50000E+00    1.61931E+02
 1.51856E+00    1.68978E+02
 1.56185E+00    1.83830E+02
 1.60000E+00    1.93727E+02
 1.63028E+00    2.01307E+02
 1.63255E+00    2.01865E+02
 1.66960E+00    2.10677E+02
 1.70000E+00    2.17009E+02
 1.72139E+00    2.19894E+02
 1.76654E+00    2.25339E+02
 1.77522E+00    2.26295E+02
 1.77878E+00    2.26286E+02
 1.77931E+00    2.26315E+02
 1.80000E+00    2.27928E+02
 1.81972E+00    2.29569E+02
 1.82095E+00    2.29666E+02
 1.82345E+00    2.29866E+02
 1.83969E+00    2.29781E+02
 1.84326E+00    2.29923E+02
 1.86632E+00    2.30107E+02
 1.86719E+00    2.29794E+02
 1.88154E+00    2.27958E+02
 1.89832E+00    2.24296E+02
 1.90000E+00    2.23923E+02
 1.92762E+00    2.21432E+02
 1.92924E+00    2.21197E+02
 1.97014E+00    2.15065E+02
 1.97122E+00    2.14656E+02
 1.97166E+00    2.14551E+02
 1.98205E+00    2.12707E+02
 1.98936E+00    2.11590E+02
 1.99282E+00    2.11071E+02
 2.00000E+00    2.09753E+02
 2.00484E+00    2.09005E+02
 2.25000E+00    1.72243E+02
 2.50000E+00    1.32727E+02
 2.75000E+00    8.99473E+01
 3.00000E+00    6.26862E+01
 3.50000E+00    2.70742E+01
 4.00000E+00    1.13867E+01
 4.50000E+00    4.80987E+00
 5.00000E+00    2.11522E+00
 5.50000E+00    1.01910E+00
 6.00000E+00    5.70463E-01
 6.50000E+00    3.80896E-01
 7.00000E+00    2.95272E-01
 7.50000E+00    2.51169E-01
 8.00000E+00    2.24149E-01
 8.50000E+00    2.04805E-01
 9.00000E+00    1.89429E-01
 9.50000E+00    1.76428E-01
 1.00000E+01    1.65001E-01
 1.05000E+01    1.54741E-01
 1.10000E+01    1.45360E-01
 1.15000E+01    1.36690E-01
 1.20000E+01    1.28660E-01
 1.25000E+01    1.21224E-01
 1.30000E+01    1.14364E-01
 1.35000E+01    1.08062E-01
 1.40000E+01    1.02293E-01
 1.45000E+01    9.70216E-02
 1.50000E+01    9.22008E-02
 1.55000E+01    8.77752E-02
 1.60000E+01    8.36898E-02
 1.65000E+01    7.98922E-02
 1.70000E+01    7.63328E-02
 1.75000E+01    7.29697E-02
 1.80000E+01    6.97707E-02
 1.85000E+01    6.67121E-02
 1.90000E+01    6.37830E-02
 1.95000E+01    6.09775E-02
 2.00000E+01    5.83012E-02
