# n + W 182 : (n,xa)    
# jendl4.0   N.Iwamoto                         EVAL-Feb10
# 
# # energies =   110
#   E(MeV)        xs(mb) 
 1.00330E-01    2.72911E-05
 1.00661E-01    2.73058E-05
 1.10000E-01    1.89819E-05
 1.20000E-01    1.77138E-05
 1.30000E-01    1.67639E-05
 1.40000E-01    1.61174E-05
 1.50000E-01    1.56931E-05
 1.60000E-01    1.53879E-05
 1.70000E-01    1.51363E-05
 1.80000E-01    1.49831E-05
 1.90000E-01    1.48761E-05
 2.00000E-01    1.48277E-05
 2.25000E-01    1.51307E-05
 2.50000E-01    1.55386E-05
 2.75000E-01    1.60912E-05
 3.00000E-01    1.67915E-05
 3.31253E-01    1.80374E-05
 4.00000E-01    2.05241E-05
 5.00000E-01    2.59426E-05
 6.00000E-01    3.42003E-05
 6.84272E-01    4.36539E-05
 7.00000E-01    4.55892E-05
 8.00000E-01    6.18207E-05
 9.00000E-01    8.43031E-05
 1.00000E+00    1.14861E-04
 1.10000E+00    1.56775E-04
 1.14211E+00    1.80586E-04
 1.15074E+00    1.83910E-04
 1.20000E+00    2.10394E-04
 1.22818E+00    2.31719E-04
 1.26439E+00    2.46409E-04
 1.29631E+00    2.56969E-04
 1.30000E+00    2.54657E-04
 1.33851E+00    2.73583E-04
 1.38146E+00    2.90154E-04
 1.40000E+00    2.91719E-04
 1.45082E+00    3.21604E-04
 1.49576E+00    3.45001E-04
 1.50000E+00    3.45156E-04
 1.51856E+00    3.54002E-04
 1.56185E+00    3.85881E-04
 1.60000E+00    4.06230E-04
 1.63028E+00    4.36134E-04
 1.63255E+00    4.38086E-04
 1.66960E+00    4.65220E-04
 1.70000E+00    4.89447E-04
 1.72139E+00    5.07527E-04
 1.76654E+00    5.62593E-04
 1.77522E+00    5.71285E-04
 1.77878E+00    5.73472E-04
 1.77931E+00    5.73798E-04
 1.80000E+00    5.93648E-04
 1.81972E+00    6.13083E-04
 1.82095E+00    6.14328E-04
 1.82345E+00    6.16857E-04
 1.83969E+00    6.45440E-04
 1.84326E+00    6.48571E-04
 1.86632E+00    6.68793E-04
 1.86719E+00    6.68498E-04
 1.88154E+00    6.75287E-04
 1.89832E+00    6.83225E-04
 1.90000E+00    6.84020E-04
 1.92762E+00    7.24202E-04
 1.92924E+00    7.26128E-04
 1.97014E+00    7.63872E-04
 1.97122E+00    7.63857E-04
 1.97166E+00    7.64250E-04
 1.98205E+00    7.73529E-04
 1.98936E+00    7.80058E-04
 1.99282E+00    7.83148E-04
 2.00000E+00    7.89561E-04
 2.00484E+00    7.94887E-04
 2.25000E+00    1.16486E-03
 2.50000E+00    1.63414E-03
 2.75000E+00    2.12515E-03
 3.00000E+00    2.74587E-03
 3.50000E+00    4.13246E-03
 4.00000E+00    5.77968E-03
 4.50000E+00    7.61511E-03
 5.00000E+00    9.53517E-03
 5.50000E+00    1.14317E-02
 6.00000E+00    1.32997E-02
 6.50000E+00    1.52820E-02
 7.00000E+00    1.79670E-02
 7.50000E+00    2.23991E-02
 8.00000E+00    2.99902E-02
 8.50000E+00    4.11136E-02
 9.00000E+00    5.09445E-02
 9.50000E+00    6.20936E-02
 1.00000E+01    7.94719E-02
 1.05000E+01    1.05955E-01
 1.10000E+01    1.44470E-01
 1.15000E+01    1.97938E-01
 1.20000E+01    2.69432E-01
 1.25000E+01    3.61756E-01
 1.30000E+01    4.77045E-01
 1.35000E+01    6.16492E-01
 1.40000E+01    7.79620E-01
 1.45000E+01    9.66875E-01
 1.50000E+01    1.17640E+00
 1.55000E+01    1.40530E+00
 1.60000E+01    1.65219E+00
 1.65000E+01    1.91386E+00
 1.70000E+01    2.18754E+00
 1.75000E+01    2.47048E+00
 1.80000E+01    2.76019E+00
 1.85000E+01    3.05436E+00
 1.90000E+01    3.35101E+00
 1.95000E+01    3.64856E+00
 2.00000E+01    3.94582E+00
