# n + W 182 : (n,n'13)  
# jendl4.0   N.Iwamoto                         EVAL-Feb10
# uncertainties: n
# # energies =    71
#   E(MeV)       xs(mb) 
 1.51856E+00    0.00000E+00
 1.56185E+00    9.34905E+00
 1.60000E+00    1.48093E+01
 1.63028E+00    1.92850E+01
 1.63255E+00    1.96119E+01
 1.66960E+00    2.49258E+01
 1.70000E+00    2.93470E+01
 1.72139E+00    3.25048E+01
 1.76654E+00    3.94198E+01
 1.77522E+00    4.06780E+01
 1.77878E+00    4.10373E+01
 1.77931E+00    4.10990E+01
 1.80000E+00    4.37477E+01
 1.81972E+00    4.63319E+01
 1.82095E+00    4.64870E+01
 1.82345E+00    4.68067E+01
 1.83969E+00    4.84276E+01
 1.84326E+00    4.88394E+01
 1.86632E+00    5.12226E+01
 1.86719E+00    5.12431E+01
 1.88154E+00    5.23456E+01
 1.89832E+00    5.39750E+01
 1.90000E+00    5.41453E+01
 1.92762E+00    5.66607E+01
 1.92924E+00    5.67839E+01
 1.97014E+00    5.98610E+01
 1.97122E+00    5.98536E+01
 1.97166E+00    5.98709E+01
 1.98205E+00    6.04665E+01
 1.98936E+00    6.09356E+01
 1.99282E+00    6.11582E+01
 2.00000E+00    6.16252E+01
 2.00484E+00    6.19393E+01
 2.25000E+00    6.89170E+01
 2.50000E+00    6.43556E+01
 2.75000E+00    4.95649E+01
 3.00000E+00    3.83222E+01
 3.50000E+00    1.93876E+01
 4.00000E+00    9.26889E+00
 4.50000E+00    4.36273E+00
 5.00000E+00    2.10912E+00
 5.50000E+00    1.10239E+00
 6.00000E+00    6.56979E-01
 6.50000E+00    4.55919E-01
 7.00000E+00    3.60192E-01
 7.50000E+00    3.08946E-01
 8.00000E+00    2.76778E-01
 8.50000E+00    2.53420E-01
 9.00000E+00    2.34712E-01
 9.50000E+00    2.18837E-01
 1.00000E+01    2.04867E-01
 1.05000E+01    1.92326E-01
 1.10000E+01    1.80860E-01
 1.15000E+01    1.70269E-01
 1.20000E+01    1.60441E-01
 1.25000E+01    1.51322E-01
 1.30000E+01    1.42883E-01
 1.35000E+01    1.35105E-01
 1.40000E+01    1.27962E-01
 1.45000E+01    1.21418E-01
 1.50000E+01    1.15423E-01
 1.55000E+01    1.09916E-01
 1.60000E+01    1.04832E-01
 1.65000E+01    1.00107E-01
 1.70000E+01    9.56780E-02
 1.75000E+01    9.14968E-02
 1.80000E+01    8.75227E-02
 1.85000E+01    8.37251E-02
 1.90000E+01    8.00891E-02
 1.95000E+01    7.66044E-02
 2.00000E+01    7.32759E-02
