# n + W 180 : (n,xp)    
# jendl.ad   N.Iwamoto                         EVAL-Apr14
# 
# # energies =   107
#   E(MeV)        xs(mb) 
 1.02056E-01    2.61215E-18
 1.04111E-01    2.69485E-18
 1.10000E-01    2.93182E-18
 1.20000E-01    3.36043E-18
 1.30000E-01    3.80358E-18
 1.40000E-01    4.24673E-18
 1.50000E-01    4.68988E-18
 1.60000E-01    5.17537E-18
 1.70000E-01    5.81229E-18
 1.80000E-01    6.44920E-18
 1.90000E-01    7.08612E-18
 2.00000E-01    7.72304E-18
 2.25000E-01    9.31534E-18
 2.50000E-01    1.10465E-17
 2.75000E-01    1.31639E-17
 3.00000E-01    1.52813E-17
 3.39408E-01    1.86189E-17
 4.00000E-01    2.47662E-17
 5.00000E-01    3.95424E-17
 6.00000E-01    5.45180E-17
 6.92273E-01    6.83364E-17
 7.00000E-01    6.94936E-17
 8.00000E-01    8.44692E-17
 9.00000E-01    9.94448E-17
 1.00000E+00    2.18700E-16
 1.01197E+00    4.18210E-16
 1.08841E+00    2.69540E-15
 1.10000E+00    3.63140E-15
 1.12354E+00    6.67030E-15
 1.14481E+00    1.12400E-14
 1.19149E+00    3.43170E-14
 1.20000E+00    4.17370E-14
 1.23957E+00    1.01770E-13
 1.30000E+00    3.64380E-13
 1.31487E+00    4.92770E-13
 1.32948E+00    6.59690E-13
 1.36811E+00    1.37250E-12
 1.38975E+00    2.04730E-12
 1.40000E+00    2.46710E-12
 1.46998E+00    8.41300E-12
 1.47824E+00    9.66740E-12
 1.50000E+00    1.38800E-11
 1.52450E+00    2.06890E-11
 1.53758E+00    2.53470E-11
 1.54419E+00    2.81110E-11
 1.57692E+00    4.65560E-11
 1.59614E+00    6.22010E-11
 1.60000E+00    6.51570E-11
 1.63328E+00    1.04430E-10
 1.64202E+00    1.18190E-10
 1.64380E+00    1.20780E-10
 1.64896E+00    1.29500E-10
 1.67347E+00    1.81220E-10
 1.70000E+00    2.59520E-10
 1.70305E+00    2.70378E-10
 1.70450E+00    2.75540E-10
 1.71249E+00    3.05420E-10
 1.73521E+00    4.10890E-10
 1.73951E+00    4.34420E-10
 1.77429E+00    6.78410E-10
 1.79481E+00    8.77880E-10
 1.80000E+00    9.34540E-10
 1.82498E+00    1.26790E-09
 1.84107E+00    1.53588E-09
 1.84196E+00    1.55070E-09
 1.86150E+00    1.93850E-09
 1.86556E+00    2.02910E-09
 1.90000E+00    2.99060E-09
 2.00000E+00    8.70890E-09
 2.25000E+00    8.88550E-08
 2.50000E+00    5.54450E-07
 2.75000E+00    2.69529E-06
 3.00000E+00    9.29388E-06
 3.50000E+00    7.12001E-05
 4.00000E+00    3.26899E-04
 4.50000E+00    1.05068E-03
 5.00000E+00    2.61846E-03
 5.50000E+00    5.44185E-03
 6.00000E+00    1.00860E-02
 6.50000E+00    1.77185E-02
 7.00000E+00    3.13779E-02
 7.50000E+00    5.73623E-02
 8.00000E+00    1.06574E-01
 8.50000E+00    1.95475E-01
 9.00000E+00    3.45379E-01
 9.50000E+00    5.81502E-01
 1.00000E+01    9.27984E-01
 1.05000E+01    1.40844E+00
 1.10000E+01    2.03904E+00
 1.15000E+01    2.83227E+00
 1.20000E+01    3.79616E+00
 1.25000E+01    4.93577E+00
 1.30000E+01    6.25370E+00
 1.35000E+01    7.75019E+00
 1.40000E+01    9.42267E+00
 1.45000E+01    1.12646E+01
 1.50000E+01    1.32651E+01
 1.55000E+01    1.54104E+01
 1.60000E+01    1.76838E+01
 1.65000E+01    2.00677E+01
 1.70000E+01    2.25441E+01
 1.75000E+01    2.50952E+01
 1.80000E+01    2.77047E+01
 1.85000E+01    3.03590E+01
 1.90000E+01    3.30471E+01
 1.95000E+01    3.57636E+01
 2.00000E+01    3.85045E+01
