# n + Pb204 : (n,xp)    
# jendl4.0   O.Iwamoto, N.Iwamoto              EVAL-MAR10
# 
# # energies =    66
#   E(MeV)        xs(mb) 
 1.50000E-01    0.00000E+00
 2.00000E-01    0.00000E+00
 4.00000E-01    0.00000E+00
 5.00000E-01    0.00000E+00
 6.00000E-01    0.00000E+00
 8.00000E-01    0.00000E+00
 9.03617E-01    0.00000E+00
 9.03618E-01    0.00000E+00
 1.00000E+00    1.26240E-19
 1.20000E+00    7.52290E-17
 1.28030E+00    6.55230E-16
 1.35785E+00    4.21550E-15
 1.40000E+00    1.02860E-14
 1.50000E+00    8.00160E-14
 1.57100E+00    3.09930E-13
 1.59033E+00    4.39820E-13
 1.59059E+00    4.41350E-13
 1.60000E+00    5.12350E-13
 1.61270E+00    6.35060E-13
 1.67351E+00    1.70102E-12
 1.67352E+00    1.70120E-12
 1.68951E+00    2.16500E-12
 1.72067E+00    3.43090E-12
 1.73852E+00    4.43700E-12
 1.76979E+00    6.92090E-12
 1.80000E+00    1.04590E-11
 1.82644E+00    1.50070E-11
 1.88137E+00    3.12010E-11
 1.94285E+00    6.82150E-11
 2.00000E+00    1.37170E-10
 2.50000E+00    2.46250E-08
 3.00000E+00    1.10402E-06
 3.50000E+00    1.90726E-05
 4.00000E+00    1.69571E-04
 4.50000E+00    9.18769E-04
 5.00000E+00    3.37442E-03
 5.50000E+00    9.11547E-03
 6.00000E+00    1.93784E-02
 6.50000E+00    3.43037E-02
 7.00000E+00    5.31252E-02
 7.50000E+00    7.54024E-02
 8.00000E+00    1.02874E-01
 8.50000E+00    1.41041E-01
 9.00000E+00    1.99838E-01
 9.50000E+00    2.93161E-01
 1.00000E+01    4.37564E-01
 1.05000E+01    6.51442E-01
 1.10000E+01    9.51178E-01
 1.15000E+01    1.35916E+00
 1.20000E+01    1.89029E+00
 1.25000E+01    2.56690E+00
 1.30000E+01    3.40259E+00
 1.35000E+01    4.41354E+00
 1.40000E+01    5.61394E+00
 1.45000E+01    7.00402E+00
 1.50000E+01    8.58376E+00
 1.55000E+01    1.03550E+01
 1.60000E+01    1.23045E+01
 1.65000E+01    1.44195E+01
 1.70000E+01    1.66870E+01
 1.75000E+01    1.90941E+01
 1.80000E+01    2.16467E+01
 1.85000E+01    2.43239E+01
 1.90000E+01    2.71260E+01
 1.95000E+01    3.00520E+01
 2.00000E+01    3.31049E+01
