# n + Xe128 : (n,xa)    
# jendl4.0   S.Kunieda, A.Ichihara, K.Shibata+ EVAL-FEB22
# 
# # energies =    81
#   E(MeV)        xs(mb) 
 4.46403E-01    1.35097E-06
 4.50000E-01    1.36500E-06
 5.00000E-01    1.56000E-06
 5.50000E-01    1.72200E-06
 6.00000E-01    2.01300E-06
 6.50000E-01    2.41800E-06
 7.00000E-01    2.95000E-06
 7.50000E-01    3.62700E-06
 8.00000E-01    4.49000E-06
 8.50000E-01    5.56600E-06
 9.00000E-01    6.92400E-06
 9.50000E-01    8.60500E-06
 9.77120E-01    9.82813E-06
 1.00000E+00    1.08600E-05
 1.04130E+00    1.28795E-05
 1.20000E+00    2.06400E-05
 1.40000E+00    4.25100E-05
 1.44083E+00    5.09014E-05
 1.59545E+00    8.26758E-05
 1.60000E+00    8.36100E-05
 1.61606E+00    8.95977E-05
 1.75074E+00    1.39828E-04
 1.80000E+00    1.58200E-04
 1.89213E+00    2.21674E-04
 2.00000E+00    2.96000E-04
 2.01230E+00    3.09106E-04
 2.01542E+00    3.12438E-04
 2.14383E+00    4.49327E-04
 2.20000E+00    5.09200E-04
 2.24661E+00    5.86709E-04
 2.27066E+00    6.26703E-04
 2.29077E+00    6.60157E-04
 2.29889E+00    6.73649E-04
 2.38042E+00    8.09247E-04
 2.40000E+00    8.41800E-04
 2.44017E+00    9.25199E-04
 2.44986E+00    9.45307E-04
 2.46319E+00    9.72988E-04
 2.50209E+00    1.05373E-03
 2.52049E+00    1.09194E-03
 2.53051E+00    1.11274E-03
 2.53235E+00    1.11657E-03
 2.54125E+00    1.13504E-03
 2.57079E+00    1.19635E-03
 2.58501E+00    1.22587E-03
 2.60000E+00    1.25700E-03
 2.60354E+00    1.26656E-03
 2.61201E+00    1.28942E-03
 2.61907E+00    1.30850E-03
 2.65376E+00    1.40216E-03
 2.66384E+00    1.42938E-03
 2.80000E+00    1.79700E-03
 3.00000E+00    2.55600E-03
 3.25000E+00    4.03300E-03
 3.50000E+00    5.75800E-03
 3.75000E+00    8.49200E-03
 4.00000E+00    1.13800E-02
 4.25000E+00    1.56400E-02
 4.50000E+00    1.98100E-02
 4.75000E+00    2.55500E-02
 5.00000E+00    3.08300E-02
 5.50000E+00    4.38500E-02
 6.00000E+00    5.82300E-02
 6.50000E+00    7.34501E-02
 7.00000E+00    8.91611E-02
 7.50000E+00    1.06512E-01
 8.00000E+00    1.27591E-01
 8.50000E+00    1.54693E-01
 9.00000E+00    1.89376E-01
 9.50000E+00    2.39809E-01
 1.00000E+01    3.10870E-01
 1.10000E+01    5.17580E-01
 1.20000E+01    8.77120E-01
 1.30000E+01    1.45970E+00
 1.40000E+01    2.30580E+00
 1.50000E+01    3.42010E+00
 1.60000E+01    4.78500E+00
 1.70000E+01    6.37900E+00
 1.80000E+01    8.17800E+00
 1.90000E+01    1.01690E+01
 2.00000E+01    1.23360E+01
