# n + Xe128 : (n,xp)    
# jendl4.0   S.Kunieda, A.Ichihara, K.Shibata+ EVAL-FEB22
# 
# # energies =    81
#   E(MeV)        xs(mb) 
 4.46403E-01    0.00000E+00
 4.50000E-01    0.00000E+00
 5.00000E-01    0.00000E+00
 5.50000E-01    0.00000E+00
 6.00000E-01    0.00000E+00
 6.50000E-01    0.00000E+00
 7.00000E-01    0.00000E+00
 7.50000E-01    0.00000E+00
 8.00000E-01    0.00000E+00
 8.50000E-01    0.00000E+00
 9.00000E-01    0.00000E+00
 9.50000E-01    0.00000E+00
 9.77120E-01    0.00000E+00
 1.00000E+00    0.00000E+00
 1.04130E+00    0.00000E+00
 1.20000E+00    0.00000E+00
 1.40000E+00    0.00000E+00
 1.44083E+00    2.30508E-26
 1.59545E+00    1.10334E-25
 1.60000E+00    1.12900E-25
 1.61606E+00    4.19367E-21
 1.75074E+00    3.93731E-20
 1.80000E+00    5.22400E-20
 1.89213E+00    9.61146E-17
 2.00000E+00    2.08600E-16
 2.01230E+00    5.60558E-15
 2.01542E+00    6.97730E-15
 2.14383E+00    6.33455E-14
 2.20000E+00    8.80000E-14
 2.24661E+00    2.46780E-12
 2.27066E+00    3.69575E-12
 2.29077E+00    4.72292E-12
 2.29889E+00    5.13717E-12
 2.38042E+00    9.30049E-12
 2.40000E+00    1.03000E-11
 2.44017E+00    1.07619E-10
 2.44986E+00    1.31083E-10
 2.46319E+00    1.63385E-10
 2.50209E+00    2.57605E-10
 2.52049E+00    3.02189E-10
 2.53051E+00    3.26460E-10
 2.53235E+00    3.30927E-10
 2.54125E+00    3.52488E-10
 2.57079E+00    4.24027E-10
 2.58501E+00    4.58477E-10
 2.60000E+00    4.94800E-10
 2.60354E+00    7.05050E-10
 2.61201E+00    1.20773E-09
 2.61907E+00    1.62728E-09
 2.65376E+00    3.68710E-09
 2.66384E+00    4.28554E-09
 2.80000E+00    1.23700E-08
 3.00000E+00    1.99400E-07
 3.25000E+00    4.12100E-06
 3.50000E+00    4.28200E-05
 3.75000E+00    2.66400E-04
 4.00000E+00    1.03600E-03
 4.25000E+00    3.55300E-03
 4.50000E+00    8.91700E-03
 4.75000E+00    2.17900E-02
 5.00000E+00    4.11800E-02
 5.50000E+00    1.23600E-01
 6.00000E+00    2.71900E-01
 6.50000E+00    4.78500E-01
 7.00000E+00    7.21500E-01
 7.50000E+00    9.96000E-01
 8.00000E+00    1.32800E+00
 8.50000E+00    1.73800E+00
 9.00000E+00    2.32500E+00
 9.50000E+00    3.12600E+00
 1.00000E+01    4.19400E+00
 1.10000E+01    7.30567E+00
 1.20000E+01    1.19419E+01
 1.30000E+01    1.82478E+01
 1.40000E+01    2.62790E+01
 1.50000E+01    3.62960E+01
 1.60000E+01    4.80420E+01
 1.70000E+01    6.13600E+01
 1.80000E+01    7.61400E+01
 1.90000E+01    9.23200E+01
 2.00000E+01    1.09850E+02
