# n + U 236 : (n,xn)    
# jendl4.0   O.Iwamoto, T.Nakagawa, et al.     EVAL-JAN10
# 
# # energies =    95
#   E(MeV)        xs(mb) 
 4.54353E-02    0.00000E+00
 5.00000E-02    5.02602E+01
 7.00000E-02    2.81807E+02
 1.00000E-01    5.23940E+02
 1.10000E-01    5.75141E+02
 1.20000E-01    6.26353E+02
 1.40000E-01    7.16625E+02
 1.50115E-01    7.59427E+02
 1.70000E-01    8.40824E+02
 2.00000E-01    9.69169E+02
 2.50000E-01    1.10033E+03
 3.00000E-01    1.23646E+03
 3.11108E-01    1.25017E+03
 4.00000E-01    1.37452E+03
 5.00000E-01    1.56358E+03
 5.24472E-01    1.58641E+03
 6.00000E-01    1.65476E+03
 6.90538E-01    1.74607E+03
 7.00000E-01    1.78645E+03
 7.47330E-01    1.86547E+03
 7.85643E-01    1.91999E+03
 8.00000E-01    1.93634E+03
 8.51925E-01    1.98441E+03
 9.00000E-01    2.01308E+03
 9.23138E-01    2.02283E+03
 9.62084E-01    2.05136E+03
 9.64404E-01    2.05577E+03
 9.70761E-01    2.06828E+03
 9.91890E-01    2.11721E+03
 1.00000E+00    2.13807E+03
 1.00407E+00    2.14564E+03
 1.00578E+00    2.14902E+03
 1.04002E+00    2.21029E+03
 1.04003E+00    2.21030E+03
 1.05534E+00    2.23685E+03
 1.05739E+00    2.24015E+03
 1.06313E+00    2.25005E+03
 1.07066E+00    2.26153E+03
 1.07457E+00    2.26858E+03
 1.08994E+00    2.29392E+03
 1.09847E+00    2.30644E+03
 1.10000E+00    2.30984E+03
 1.10912E+00    2.32533E+03
 1.11542E+00    2.33521E+03
 1.13172E+00    2.36414E+03
 1.15190E+00    2.39494E+03
 1.15431E+00    2.39852E+03
 1.16897E+00    2.42113E+03
 1.20000E+00    2.45788E+03
 1.30000E+00    2.55031E+03
 1.40000E+00    2.61854E+03
 1.50000E+00    2.67241E+03
 1.60000E+00    2.71475E+03
 1.70000E+00    2.74529E+03
 1.80000E+00    2.76881E+03
 1.90000E+00    2.78167E+03
 2.00000E+00    2.79258E+03
 2.30000E+00    2.79166E+03
 2.50000E+00    2.77694E+03
 2.70000E+00    2.76720E+03
 3.00000E+00    2.74154E+03
 3.50000E+00    2.69734E+03
 4.00000E+00    2.65165E+03
 4.50000E+00    2.60616E+03
 5.00000E+00    2.57489E+03
 5.50000E+00    2.51873E+03
 6.00000E+00    2.40213E+03
 6.50000E+00    2.12547E+03
 7.00000E+00    1.93071E+03
 7.50000E+00    2.14293E+03
 8.00000E+00    2.36971E+03
 8.50000E+00    2.51235E+03
 9.00000E+00    2.60956E+03
 9.50000E+00    2.66201E+03
 1.00000E+01    2.70072E+03
 1.05000E+01    2.71831E+03
 1.10000E+01    2.75836E+03
 1.15000E+01    2.77513E+03
 1.20000E+01    2.80676E+03
 1.25000E+01    2.83148E+03
 1.30000E+01    2.85352E+03
 1.35000E+01    2.82314E+03
 1.40000E+01    2.74547E+03
 1.45000E+01    2.65281E+03
 1.50000E+01    2.57934E+03
 1.55000E+01    2.53557E+03
 1.60000E+01    2.52600E+03
 1.65000E+01    2.50495E+03
 1.70000E+01    2.51733E+03
 1.75000E+01    2.58706E+03
 1.80000E+01    2.62911E+03
 1.85000E+01    2.68165E+03
 1.90000E+01    2.70348E+03
 1.95000E+01    2.72942E+03
 2.00000E+01    2.71835E+03
