# n + In113 : (n,xn)    
# jendl4.0   S.Kunieda, A.Ichihara, K.Shibata+ EVAL-FEB22
# 
# # energies =    61
#   E(MeV)        xs(mb) 
 3.95190E-01    0.00000E+00
 4.00000E-01    3.98500E-01
 4.50000E-01    2.84300E+00
 5.00000E-01    4.61300E+00
 5.50000E-01    6.35800E+00
 6.00000E-01    8.25700E+00
 6.50000E-01    1.03500E+01
 6.52538E-01    1.03820E+01
 7.00000E-01    2.18800E+01
 7.50000E-01    3.04100E+01
 8.00000E-01    3.77700E+01
 8.50000E-01    4.47800E+01
 9.00000E-01    5.17700E+01
 9.50000E-01    5.88000E+01
 1.00000E+00    6.59400E+01
 1.03340E+00    6.58097E+01
 1.03891E+00    6.82157E+01
 1.07367E+00    8.76507E+01
 1.11624E+00    1.16702E+02
 1.14157E+00    1.43605E+02
 1.18358E+00    2.06484E+02
 1.20000E+00    2.67020E+02
 1.20171E+00    2.70132E+02
 1.21180E+00    2.94864E+02
 1.40000E+00    9.63614E+02
 1.60000E+00    1.36319E+03
 1.80000E+00    1.57738E+03
 2.00000E+00    1.71004E+03
 2.20000E+00    1.80917E+03
 2.40000E+00    1.87192E+03
 2.60000E+00    1.90957E+03
 2.80000E+00    1.93358E+03
 3.00000E+00    1.95234E+03
 3.25000E+00    1.97569E+03
 3.50000E+00    2.00120E+03
 3.75000E+00    2.03038E+03
 4.00000E+00    2.06113E+03
 4.25000E+00    2.09116E+03
 4.50000E+00    2.11786E+03
 4.75000E+00    2.13919E+03
 5.00000E+00    2.15429E+03
 5.50000E+00    2.16581E+03
 6.00000E+00    2.15698E+03
 6.50000E+00    2.13554E+03
 7.00000E+00    2.10893E+03
 7.50000E+00    2.08304E+03
 8.00000E+00    2.06066E+03
 8.50000E+00    2.04322E+03
 9.00000E+00    2.03104E+03
 9.50000E+00    2.02289E+03
 1.00000E+01    2.06423E+03
 1.10000E+01    2.60189E+03
 1.20000E+01    3.08202E+03
 1.30000E+01    3.33419E+03
 1.40000E+01    3.44309E+03
 1.50000E+01    3.47525E+03
 1.60000E+01    3.47123E+03
 1.70000E+01    3.44644E+03
 1.80000E+01    3.41641E+03
 1.90000E+01    3.42783E+03
 2.00000E+01    3.49161E+03
