# n + Sn120 : (n,tot)   
# jendl.ad   N.Iwamoto                         EVAL-Apr14
# uncertainties: n
# # energies =    69
#   E(MeV)       xs(mb) 
 1.00000E-10    9.98570E+02
 5.00000E-09    2.71887E+02
 1.00000E-08    2.05906E+02
 1.50000E-08    1.73001E+02
 2.00000E-08    1.52198E+02
 2.50000E-08    1.37497E+02
 3.00000E-08    1.26390E+02
 3.50000E-08    1.16215E+02
 4.20000E-08    1.06292E+02
 5.00000E-08    9.80376E+01
 5.80000E-08    9.11133E+01
 6.70000E-08    8.40963E+01
 8.00000E-08    7.60909E+01
 1.00000E-07    6.61860E+01
 1.40000E-07    5.71146E+01
 1.80000E-07    5.09859E+01
 2.20000E-07    4.69478E+01
 2.50000E-07    4.41929E+01
 2.80000E-07    4.22253E+01
 3.00000E-07    4.08407E+01
 3.20000E-07    3.92924E+01
 3.50000E-07    3.71571E+01
 4.00000E-07    3.39908E+01
 5.00000E-07    3.04008E+01
 6.25000E-07    2.71918E+01
 7.80000E-07    2.51579E+01
 8.50000E-07    2.41951E+01
 9.10000E-07    2.35388E+01
 9.50000E-07    2.31562E+01
 9.72000E-07    2.28734E+01
 9.96000E-07    2.25908E+01
 1.02000E-06    2.23265E+01
 1.04500E-06    2.20520E+01
 1.07100E-06    2.17834E+01
 1.09700E-06    2.15326E+01
 1.12300E-06    2.12774E+01
 1.15000E-06    2.05091E+01
 1.30000E-06    1.91868E+01
 1.50000E-06    1.70109E+01
 2.10000E-06    1.47878E+01
 2.60000E-06    1.31877E+01
 3.30000E-06    1.18124E+01
 4.00000E-06    8.98261E+00
 9.87700E-06    6.20076E+00
 1.59680E-05    4.67880E+00
 2.77000E-05    3.40103E+00
 4.80520E-05    2.48175E+00
 7.55014E-05    1.68522E+00
 1.48728E-04    1.00148E+02
 3.67262E-04    2.47777E+02
 9.06898E-04    7.67434E+02
 1.42510E-03    1.83667E+02
 2.23945E-03    7.91935E+01
 3.51910E-03    2.08796E+02
 5.53000E-03    8.11613E+01
 9.11800E-03    6.28278E+01
 1.50300E-02    4.94344E+01
 2.47800E-02    3.47367E+01
 4.08500E-02    2.45456E+01
 6.73400E-02    2.17711E+01
 1.11000E-01    1.96975E+01
 1.83000E-01    1.82888E+01
 3.02000E-01    1.83456E+01
 5.00000E-01    2.05009E+01
 8.21000E-01    2.58001E+01
 1.35300E+00    2.19595E+01
 2.23100E+00    1.11781E+01
 3.67900E+00    4.29409E+00
 6.06500E+00    1.85915E+03
