# n + Sn114 : (n,d)     
# jendl.ad   N.Iwamoto                         EVAL-Apr14
# uncertainties: n
# # energies =    63
#   E(MeV)       xs(mb) 
 6.31108E+00    0.00000E+00
 6.70625E+00    8.38330E-15
 6.96364E+00    1.13570E-12
 7.34439E+00    2.80330E-12
 7.34983E+00    2.82710E-12
 7.38438E+00    2.97850E-12
 7.42730E+00    3.16640E-12
 7.45255E+00    3.27700E-12
 7.49453E+00    3.46090E-12
 7.50000E+00    3.48490E-12
 7.51274E+00    7.74560E-12
 7.66789E+00    5.96330E-11
 7.67406E+00    6.16970E-11
 7.70407E+00    7.17330E-11
 7.77695E+00    9.61060E-11
 7.79599E+00    1.02470E-10
 7.82071E+00    1.10740E-10
 7.82840E+00    1.13310E-10
 7.83345E+00    1.15000E-10
 7.86060E+00    1.24080E-10
 7.87683E+00    1.29510E-10
 7.89201E+00    1.34590E-10
 7.89452E+00    1.35430E-10
 7.94430E+00    1.52070E-10
 7.95608E+00    1.56010E-10
 7.95955E+00    1.57170E-10
 8.00000E+00    1.70700E-10
 8.00139E+00    2.63930E-10
 8.01012E+00    8.49420E-10
 8.01564E+00    1.21960E-09
 8.02614E+00    1.92380E-09
 8.03355E+00    2.42080E-09
 8.08465E+00    5.84790E-09
 8.08694E+00    6.00150E-09
 8.09478E+00    6.52730E-09
 8.12934E+00    8.84510E-09
 8.14975E+00    1.02140E-08
 8.16305E+00    1.11060E-08
 8.19293E+00    1.31100E-08
 8.50000E+00    3.37040E-08
 9.00000E+00    1.34801E-06
 9.50000E+00    2.34334E-05
 1.00000E+01    1.75171E-04
 1.05000E+01    1.17574E-03
 1.10000E+01    5.65768E-03
 1.15000E+01    2.07416E-02
 1.20000E+01    6.06841E-02
 1.25000E+01    1.47253E-01
 1.30000E+01    3.05207E-01
 1.35000E+01    5.55653E-01
 1.40000E+01    9.10316E-01
 1.45000E+01    1.36970E+00
 1.50000E+01    1.92779E+00
 1.55000E+01    2.57014E+00
 1.60000E+01    3.28689E+00
 1.65000E+01    4.05900E+00
 1.70000E+01    4.79992E+00
 1.75000E+01    5.64591E+00
 1.80000E+01    6.52428E+00
 1.85000E+01    7.41665E+00
 1.90000E+01    8.18077E+00
 1.95000E+01    9.09569E+00
 2.00000E+01    1.00220E+01
