# n + Eu152 : (n,n'20)  
# jendl4.0   N.Iwamoto                         EVAL-Nov09
# uncertainties: n
# # energies =    85
#   E(MeV)       xs(mb) 
 1.59104E-01    0.00000E+00
 1.60000E-01    4.06891E+00
 1.61949E-01    6.71023E+00
 1.70000E-01    1.16038E+01
 1.76098E-01    1.38697E+01
 1.78866E-01    1.46761E+01
 1.80000E-01    1.46576E+01
 1.80120E-01    1.46754E+01
 1.81832E-01    1.49787E+01
 1.90000E-01    1.65678E+01
 1.93778E-01    1.72702E+01
 1.98221E-01    1.80650E+01
 2.00000E-01    1.83580E+01
 2.00991E-01    1.85151E+01
 2.02082E-01    1.86864E+01
 2.02467E-01    1.87464E+01
 2.04460E-01    1.90494E+01
 2.04532E-01    1.90543E+01
 2.13020E-01    2.02167E+01
 2.15784E-01    2.05733E+01
 2.15852E-01    2.05555E+01
 2.20917E-01    2.10008E+01
 2.22262E-01    2.11374E+01
 2.22678E-01    2.11216E+01
 2.22924E-01    2.11288E+01
 2.25000E-01    2.11180E+01
 2.25992E-01    2.11599E+01
 2.50000E-01    2.22398E+01
 2.75000E-01    2.33915E+01
 3.00000E-01    2.43920E+01
 4.00000E-01    2.30362E+01
 5.00000E-01    1.91233E+01
 6.00000E-01    1.58845E+01
 7.00000E-01    1.32369E+01
 8.00000E-01    1.12014E+01
 9.00000E-01    9.23514E+00
 1.00000E+00    7.69744E+00
 1.10000E+00    6.49116E+00
 1.20000E+00    5.47489E+00
 1.30000E+00    4.58243E+00
 1.40000E+00    3.83954E+00
 1.50000E+00    3.22303E+00
 1.60000E+00    2.71079E+00
 1.70000E+00    2.28447E+00
 1.80000E+00    1.92898E+00
 1.90000E+00    1.63193E+00
 2.00000E+00    1.38317E+00
 2.25000E+00    9.13194E-01
 2.50000E+00    6.18865E-01
 2.75000E+00    4.15847E-01
 3.00000E+00    2.95883E-01
 3.50000E+00    1.42840E-01
 4.00000E+00    7.21392E-02
 4.50000E+00    3.97753E-02
 5.00000E+00    2.50245E-02
 5.50000E+00    1.81376E-02
 6.00000E+00    1.47906E-02
 6.50000E+00    1.29823E-02
 7.00000E+00    1.18168E-02
 7.50000E+00    1.09294E-02
 8.00000E+00    1.01843E-02
 8.50000E+00    9.52468E-03
 9.00000E+00    8.93227E-03
 9.50000E+00    8.40913E-03
 1.00000E+01    7.94401E-03
 1.05000E+01    7.52925E-03
 1.10000E+01    7.15312E-03
 1.15000E+01    6.80776E-03
 1.20000E+01    6.48638E-03
 1.25000E+01    6.18366E-03
 1.30000E+01    5.89592E-03
 1.35000E+01    5.62143E-03
 1.40000E+01    5.35991E-03
 1.45000E+01    5.11171E-03
 1.50000E+01    4.87711E-03
 1.55000E+01    4.67317E-03
 1.60000E+01    4.48141E-03
 1.65000E+01    4.30117E-03
 1.70000E+01    4.13124E-03
 1.75000E+01    3.97089E-03
 1.80000E+01    3.81958E-03
 1.85000E+01    3.67686E-03
 1.90000E+01    3.54172E-03
 1.95000E+01    3.41329E-03
 2.00000E+01    3.29073E-03
