# n + Eu152 : (n,n'26)  
# jendl4.0   N.Iwamoto                         EVAL-Nov09
# uncertainties: n
# # energies =    75
#   E(MeV)       xs(mb) 
 1.93778E-01    0.00000E+00
 1.98221E-01    8.28622E-02
 2.00000E-01    1.06099E-01
 2.00991E-01    1.19234E-01
 2.02082E-01    1.34009E-01
 2.02467E-01    1.38120E-01
 2.04460E-01    1.63842E-01
 2.04532E-01    1.64788E-01
 2.13020E-01    2.86756E-01
 2.15784E-01    3.24266E-01
 2.15852E-01    3.25281E-01
 2.20917E-01    4.04572E-01
 2.22262E-01    4.26428E-01
 2.22678E-01    4.33273E-01
 2.22924E-01    4.37351E-01
 2.25000E-01    4.72189E-01
 2.25992E-01    4.89140E-01
 2.50000E-01    9.41895E-01
 2.75000E-01    1.48272E+00
 3.00000E-01    2.06879E+00
 4.00000E-01    3.76361E+00
 5.00000E-01    4.29236E+00
 6.00000E-01    4.36413E+00
 7.00000E-01    4.13143E+00
 8.00000E-01    3.89606E+00
 9.00000E-01    3.56067E+00
 1.00000E+00    3.22933E+00
 1.10000E+00    2.93832E+00
 1.20000E+00    2.68106E+00
 1.30000E+00    2.40004E+00
 1.40000E+00    2.13947E+00
 1.50000E+00    1.90146E+00
 1.60000E+00    1.68575E+00
 1.70000E+00    1.49151E+00
 1.80000E+00    1.31754E+00
 1.90000E+00    1.16235E+00
 2.00000E+00    1.02435E+00
 2.25000E+00    7.38426E-01
 2.50000E+00    5.36779E-01
 2.75000E+00    3.82969E-01
 3.00000E+00    3.03507E-01
 3.50000E+00    1.64352E-01
 4.00000E+00    9.32964E-02
 4.50000E+00    5.81536E-02
 5.00000E+00    4.09230E-02
 5.50000E+00    3.21860E-02
 6.00000E+00    2.75105E-02
 6.50000E+00    2.46979E-02
 7.00000E+00    2.27128E-02
 7.50000E+00    2.11030E-02
 8.00000E+00    1.97057E-02
 8.50000E+00    1.84484E-02
 9.00000E+00    1.73104E-02
 9.50000E+00    1.63021E-02
 1.00000E+01    1.54040E-02
 1.05000E+01    1.46029E-02
 1.10000E+01    1.38761E-02
 1.15000E+01    1.32087E-02
 1.20000E+01    1.25876E-02
 1.25000E+01    1.20024E-02
 1.30000E+01    1.14460E-02
 1.35000E+01    1.09150E-02
 1.40000E+01    1.04089E-02
 1.45000E+01    9.92825E-03
 1.50000E+01    9.47376E-03
 1.55000E+01    9.07719E-03
 1.60000E+01    8.70431E-03
 1.65000E+01    8.35386E-03
 1.70000E+01    8.02345E-03
 1.75000E+01    7.71168E-03
 1.80000E+01    7.41750E-03
 1.85000E+01    7.14001E-03
 1.90000E+01    6.87729E-03
 1.95000E+01    6.62766E-03
 2.00000E+01    6.38950E-03
