# n + Eu152 : (n,n'15)  
# jendl4.0   N.Iwamoto                         EVAL-Nov09
# uncertainties: n
# # energies =    91
#   E(MeV)       xs(mb) 
 1.47056E-01    0.00000E+00
 1.48842E-01    3.30396E+01
 1.49724E-01    3.92338E+01
 1.49748E-01    3.92961E+01
 1.50000E-01    4.06008E+01
 1.51688E-01    4.84935E+01
 1.59104E-01    6.97317E+01
 1.60000E-01    7.15996E+01
 1.61949E-01    7.54073E+01
 1.70000E-01    8.40957E+01
 1.76098E-01    9.06499E+01
 1.78866E-01    9.28829E+01
 1.80000E-01    9.30484E+01
 1.80120E-01    9.31134E+01
 1.81832E-01    9.24204E+01
 1.90000E-01    9.59603E+01
 1.93778E-01    9.78157E+01
 1.98221E-01    9.99837E+01
 2.00000E-01    9.94049E+01
 2.00991E-01    9.95673E+01
 2.02082E-01    9.98139E+01
 2.02467E-01    9.99034E+01
 2.04460E-01    9.90887E+01
 2.04532E-01    9.90863E+01
 2.13020E-01    9.98069E+01
 2.15784E-01    1.00253E+02
 2.15852E-01    1.00204E+02
 2.20917E-01    9.98683E+01
 2.22262E-01    9.99912E+01
 2.22678E-01    9.97655E+01
 2.22924E-01    9.93364E+01
 2.25000E-01    9.82611E+01
 2.25992E-01    9.80506E+01
 2.50000E-01    9.67004E+01
 2.75000E-01    9.74984E+01
 3.00000E-01    9.84632E+01
 4.00000E-01    8.42791E+01
 5.00000E-01    6.41247E+01
 6.00000E-01    4.87510E+01
 7.00000E-01    3.78649E+01
 8.00000E-01    2.99884E+01
 9.00000E-01    2.35609E+01
 1.00000E+00    1.88230E+01
 1.10000E+00    1.53148E+01
 1.20000E+00    1.24987E+01
 1.30000E+00    1.01930E+01
 1.40000E+00    8.35043E+00
 1.50000E+00    6.87303E+00
 1.60000E+00    5.68149E+00
 1.70000E+00    4.71528E+00
 1.80000E+00    3.92785E+00
 1.90000E+00    3.28308E+00
 2.00000E+00    2.75284E+00
 2.25000E+00    1.77878E+00
 2.50000E+00    1.18489E+00
 2.75000E+00    7.86610E-01
 3.00000E+00    5.30049E-01
 3.50000E+00    2.41505E-01
 4.00000E+00    1.11344E-01
 4.50000E+00    5.31231E-02
 5.00000E+00    2.73178E-02
 5.50000E+00    1.57873E-02
 6.00000E+00    1.06102E-02
 6.50000E+00    8.19522E-03
 7.00000E+00    6.95008E-03
 7.50000E+00    6.20206E-03
 8.00000E+00    5.67924E-03
 8.50000E+00    5.26560E-03
 9.00000E+00    4.91644E-03
 9.50000E+00    4.61813E-03
 1.00000E+01    4.35757E-03
 1.05000E+01    4.12736E-03
 1.10000E+01    3.91968E-03
 1.15000E+01    3.72952E-03
 1.20000E+01    3.55284E-03
 1.25000E+01    3.38658E-03
 1.30000E+01    3.22864E-03
 1.35000E+01    3.07804E-03
 1.40000E+01    2.93460E-03
 1.45000E+01    2.79852E-03
 1.50000E+01    2.66993E-03
 1.55000E+01    2.55833E-03
 1.60000E+01    2.45340E-03
 1.65000E+01    2.35478E-03
 1.70000E+01    2.26179E-03
 1.75000E+01    2.17404E-03
 1.80000E+01    2.09124E-03
 1.85000E+01    2.01314E-03
 1.90000E+01    1.93919E-03
 1.95000E+01    1.86891E-03
 2.00000E+01    1.80182E-03
