# n + Eu152 : (n,n'12)  
# jendl4.0   N.Iwamoto                         EVAL-Nov09
# uncertainties: n
# # energies =    96
#   E(MeV)       xs(mb) 
 1.21640E-01    0.00000E+00
 1.25362E-01    3.87850E+01
 1.30000E-01    5.26828E+01
 1.40000E-01    7.01944E+01
 1.42768E-01    7.38411E+01
 1.47056E-01    7.87416E+01
 1.48842E-01    7.87174E+01
 1.49724E-01    7.92491E+01
 1.49748E-01    7.92642E+01
 1.50000E-01    7.94272E+01
 1.51688E-01    8.05800E+01
 1.59104E-01    8.55233E+01
 1.60000E-01    8.55703E+01
 1.61949E-01    8.64779E+01
 1.70000E-01    8.77025E+01
 1.76098E-01    9.00510E+01
 1.78866E-01    9.03635E+01
 1.80000E-01    8.92215E+01
 1.80120E-01    8.91888E+01
 1.81832E-01    8.79101E+01
 1.90000E-01    8.76711E+01
 1.93778E-01    8.80405E+01
 1.98221E-01    8.85992E+01
 2.00000E-01    8.80263E+01
 2.00991E-01    8.79922E+01
 2.02082E-01    8.79964E+01
 2.02467E-01    8.80066E+01
 2.04460E-01    8.73304E+01
 2.04532E-01    8.73124E+01
 2.13020E-01    8.68424E+01
 2.15784E-01    8.69230E+01
 2.15852E-01    8.68315E+01
 2.20917E-01    8.64426E+01
 2.22262E-01    8.64164E+01
 2.22678E-01    8.61101E+01
 2.22924E-01    8.58135E+01
 2.25000E-01    8.45995E+01
 2.25992E-01    8.42981E+01
 2.50000E-01    8.03322E+01
 2.75000E-01    7.96260E+01
 3.00000E-01    7.86815E+01
 4.00000E-01    6.44229E+01
 5.00000E-01    4.86370E+01
 6.00000E-01    3.67513E+01
 7.00000E-01    2.88102E+01
 8.00000E-01    2.28139E+01
 9.00000E-01    1.81027E+01
 1.00000E+00    1.46030E+01
 1.10000E+00    1.19916E+01
 1.20000E+00    9.81376E+00
 1.30000E+00    8.04890E+00
 1.40000E+00    6.62891E+00
 1.50000E+00    5.48309E+00
 1.60000E+00    4.55334E+00
 1.70000E+00    3.79507E+00
 1.80000E+00    3.17372E+00
 1.90000E+00    2.66232E+00
 2.00000E+00    2.23970E+00
 2.25000E+00    1.45657E+00
 2.50000E+00    9.75907E-01
 2.75000E+00    6.50137E-01
 3.00000E+00    4.39870E-01
 3.50000E+00    2.01143E-01
 4.00000E+00    9.29552E-02
 4.50000E+00    4.44833E-02
 5.00000E+00    2.29902E-02
 5.50000E+00    1.33952E-02
 6.00000E+00    9.08899E-03
 6.50000E+00    7.07825E-03
 7.00000E+00    6.03518E-03
 7.50000E+00    5.40193E-03
 8.00000E+00    4.95422E-03
 8.50000E+00    4.59816E-03
 9.00000E+00    4.29651E-03
 9.50000E+00    4.03795E-03
 1.00000E+01    3.81170E-03
 1.05000E+01    3.61152E-03
 1.10000E+01    3.43079E-03
 1.15000E+01    3.26515E-03
 1.20000E+01    3.11111E-03
 1.25000E+01    2.96483E-03
 1.30000E+01    2.82590E-03
 1.35000E+01    2.69350E-03
 1.40000E+01    2.56748E-03
 1.45000E+01    2.44800E-03
 1.50000E+01    2.33516E-03
 1.55000E+01    2.23768E-03
 1.60000E+01    2.14603E-03
 1.65000E+01    2.05987E-03
 1.70000E+01    1.97864E-03
 1.75000E+01    1.90199E-03
 1.80000E+01    1.82957E-03
 1.85000E+01    1.76076E-03
 1.90000E+01    1.69561E-03
 1.95000E+01    1.63370E-03
 2.00000E+01    1.57461E-03
