# n + Eu152 : (n,n'13)  
# jendl4.0   N.Iwamoto                         EVAL-Nov09
# uncertainties: n
# # energies =    95
#   E(MeV)       xs(mb) 
 1.25362E-01    0.00000E+00
 1.30000E-01    5.13209E+01
 1.40000E-01    8.06235E+01
 1.42768E-01    8.61805E+01
 1.47056E-01    9.33649E+01
 1.48842E-01    9.45079E+01
 1.49724E-01    9.55229E+01
 1.49748E-01    9.52145E+01
 1.50000E-01    9.47532E+01
 1.51688E-01    9.51080E+01
 1.59104E-01    1.00172E+02
 1.60000E-01    1.00874E+02
 1.61949E-01    1.02405E+02
 1.70000E-01    1.05886E+02
 1.76098E-01    1.09346E+02
 1.78866E-01    1.10188E+02
 1.80000E-01    1.10683E+02
 1.80120E-01    1.10736E+02
 1.81832E-01    1.10510E+02
 1.90000E-01    1.12766E+02
 1.93778E-01    1.13870E+02
 1.98221E-01    1.15161E+02
 2.00000E-01    1.14854E+02
 2.00991E-01    1.14958E+02
 2.02082E-01    1.14456E+02
 2.02467E-01    1.14364E+02
 2.04460E-01    1.13509E+02
 2.04532E-01    1.13498E+02
 2.13020E-01    1.12643E+02
 2.15784E-01    1.12741E+02
 2.15852E-01    1.12704E+02
 2.20917E-01    1.10782E+02
 2.22262E-01    1.10663E+02
 2.22678E-01    1.10357E+02
 2.22924E-01    1.10058E+02
 2.25000E-01    1.09060E+02
 2.25992E-01    1.08767E+02
 2.50000E-01    1.04809E+02
 2.75000E-01    1.04594E+02
 3.00000E-01    1.04067E+02
 4.00000E-01    8.72276E+01
 5.00000E-01    6.63936E+01
 6.00000E-01    5.02732E+01
 7.00000E-01    3.92321E+01
 8.00000E-01    3.09239E+01
 9.00000E-01    2.44096E+01
 1.00000E+00    1.95850E+01
 1.10000E+00    1.59761E+01
 1.20000E+00    1.30065E+01
 1.30000E+00    1.06113E+01
 1.40000E+00    8.69557E+00
 1.50000E+00    7.15865E+00
 1.60000E+00    5.91863E+00
 1.70000E+00    4.91292E+00
 1.80000E+00    4.09324E+00
 1.90000E+00    3.42209E+00
 2.00000E+00    2.87017E+00
 2.25000E+00    1.85660E+00
 2.50000E+00    1.23792E+00
 2.75000E+00    8.22822E-01
 3.00000E+00    5.74524E-01
 3.50000E+00    2.72108E-01
 4.00000E+00    1.34665E-01
 4.50000E+00    7.23952E-02
 5.00000E+00    4.41799E-02
 5.50000E+00    3.10822E-02
 6.00000E+00    2.47746E-02
 6.50000E+00    2.14404E-02
 7.00000E+00    1.93702E-02
 7.50000E+00    1.78474E-02
 8.00000E+00    1.65996E-02
 8.50000E+00    1.55112E-02
 9.00000E+00    1.45415E-02
 9.50000E+00    1.36888E-02
 1.00000E+01    1.29325E-02
 1.05000E+01    1.22586E-02
 1.10000E+01    1.16478E-02
 1.15000E+01    1.10863E-02
 1.20000E+01    1.05597E-02
 1.25000E+01    1.00639E-02
 1.30000E+01    9.59289E-03
 1.35000E+01    9.14388E-03
 1.40000E+01    8.71641E-03
 1.45000E+01    8.31105E-03
 1.50000E+01    7.92817E-03
 1.55000E+01    7.59716E-03
 1.60000E+01    7.28592E-03
 1.65000E+01    6.99336E-03
 1.70000E+01    6.71750E-03
 1.75000E+01    6.45720E-03
 1.80000E+01    6.21158E-03
 1.85000E+01    5.97982E-03
 1.90000E+01    5.75856E-03
 1.95000E+01    5.54828E-03
 2.00000E+01    5.34763E-03
