# n + Os192 : (n,n'02)  
# jendl4.0   N.Iwamoto                         EVAL-Jan10
# uncertainties: n
# # energies =    93
#   E(MeV)       xs(mb) 
 4.91630E-01    0.00000E+00
 5.00000E-01    2.08443E+02
 5.83329E-01    4.27538E+02
 6.00000E-01    4.52257E+02
 6.93999E-01    5.64513E+02
 7.00000E-01    5.49831E+02
 8.00000E-01    5.94402E+02
 9.00000E-01    6.31733E+02
 9.14372E-01    6.33140E+02
 9.61566E-01    6.35297E+02
 1.00000E+00    6.21836E+02
 1.07516E+00    6.17709E+02
 1.09495E+00    6.15735E+02
 1.10000E+00    6.15388E+02
 1.13344E+00    6.11772E+02
 1.14953E+00    5.84766E+02
 1.20000E+00    5.59325E+02
 1.21263E+00    5.54810E+02
 1.30000E+00    5.18420E+02
 1.34820E+00    5.05355E+02
 1.36918E+00    4.92720E+02
 1.40000E+00    4.82779E+02
 1.41727E+00    4.78208E+02
 1.45793E+00    4.53077E+02
 1.46425E+00    4.44635E+02
 1.47304E+00    4.39102E+02
 1.50000E+00    4.26777E+02
 1.56880E+00    4.01820E+02
 1.60000E+00    3.89782E+02
 1.60010E+00    3.89749E+02
 1.62134E+00    3.79917E+02
 1.65374E+00    3.62789E+02
 1.67384E+00    3.55598E+02
 1.70000E+00    3.42024E+02
 1.71737E+00    3.35852E+02
 1.72191E+00    3.34342E+02
 1.74290E+00    3.27656E+02
 1.78970E+00    3.09673E+02
 1.80000E+00    3.05349E+02
 1.81721E+00    2.99864E+02
 1.83611E+00    2.91770E+02
 1.84706E+00    2.84503E+02
 1.86773E+00    2.74724E+02
 1.87768E+00    2.70469E+02
 1.87852E+00    2.69640E+02
 1.88866E+00    2.62340E+02
 1.90000E+00    2.55934E+02
 1.90489E+00    2.53871E+02
 1.91268E+00    2.50236E+02
 1.93178E+00    2.41747E+02
 1.93411E+00    2.40312E+02
 1.94708E+00    2.34275E+02
 1.95019E+00    2.32454E+02
 1.95100E+00    2.32052E+02
 2.00000E+00    2.14659E+02
 2.25000E+00    1.54801E+02
 2.50000E+00    1.05767E+02
 2.75000E+00    7.60431E+01
 3.00000E+00    5.02588E+01
 3.50000E+00    2.31128E+01
 4.00000E+00    1.03017E+01
 4.50000E+00    4.50139E+00
 5.00000E+00    1.94380E+00
 5.50000E+00    8.31746E-01
 6.00000E+00    3.52738E-01
 6.50000E+00    1.48300E-01
 7.00000E+00    6.18726E-02
 7.50000E+00    2.59367E-02
 8.00000E+00    1.10569E-02
 8.50000E+00    4.82438E-03
 9.00000E+00    2.15590E-03
 9.50000E+00    9.85600E-04
 1.00000E+01    4.59644E-04
 1.05000E+01    2.18271E-04
 1.10000E+01    1.05351E-04
 1.15000E+01    5.16284E-05
 1.20000E+01    2.56689E-05
 1.25000E+01    1.29397E-05
 1.30000E+01    6.61008E-06
 1.35000E+01    3.41999E-06
 1.40000E+01    1.79121E-06
 1.45000E+01    9.49190E-07
 1.50000E+01    5.08640E-07
 1.55000E+01    2.75470E-07
 1.60000E+01    1.50690E-07
 1.65000E+01    8.32180E-08
 1.70000E+01    4.63670E-08
 1.75000E+01    2.60530E-08
 1.80000E+01    1.47560E-08
 1.85000E+01    8.42090E-09
 1.90000E+01    4.84080E-09
 1.95000E+01    2.80240E-09
 2.00000E+01    1.63350E-09
