# n + Zn 66 : (n,g)     
# endfb8.0   N.Iwamoto                         EVAL-Dec09
# uncertainties: n
# # energies =    69
#   E(MeV)       xs(mb) 
 1.00000E-10    4.31350E+03
 5.00000E-09    1.17449E+03
 1.00000E-08    8.89494E+02
 1.50000E-08    7.47347E+02
 2.00000E-08    6.57526E+02
 2.50000E-08    5.94043E+02
 3.00000E-08    5.46068E+02
 3.50000E-08    5.02060E+02
 4.20000E-08    4.59211E+02
 5.00000E-08    4.23575E+02
 5.80000E-08    3.93690E+02
 6.70000E-08    3.63315E+02
 8.00000E-08    3.28760E+02
 1.00000E-07    2.86028E+02
 1.40000E-07    2.46808E+02
 1.80000E-07    2.20380E+02
 2.20000E-07    2.02957E+02
 2.50000E-07    1.91076E+02
 2.80000E-07    1.82544E+02
 3.00000E-07    1.76548E+02
 3.20000E-07    1.69879E+02
 3.50000E-07    1.60675E+02
 4.00000E-07    1.47016E+02
 5.00000E-07    1.31495E+02
 6.25000E-07    1.17654E+02
 7.80000E-07    1.08898E+02
 8.50000E-07    1.04776E+02
 9.10000E-07    1.01900E+02
 9.50000E-07    1.00235E+02
 9.72000E-07    9.90583E+01
 9.96000E-07    9.78700E+01
 1.02000E-06    9.67014E+01
 1.04500E-06    9.55314E+01
 1.07100E-06    9.43798E+01
 1.09700E-06    9.32654E+01
 1.12300E-06    9.21761E+01
 1.15000E-06    8.88837E+01
 1.30000E-06    8.31851E+01
 1.50000E-06    7.38804E+01
 2.10000E-06    6.43384E+01
 2.60000E-06    5.74775E+01
 3.30000E-06    5.15839E+01
 4.00000E-06    3.95181E+01
 9.87700E-06    2.77572E+01
 1.59680E-05    2.14340E+01
 2.77000E-05    1.62312E+01
 4.80520E-05    1.25746E+01
 7.55014E-05    9.46650E+00
 1.48728E-04    4.68855E+02
 3.67262E-04    3.87860E+00
 9.06898E-04    2.43936E+00
 1.42510E-03    1.88862E+00
 2.23945E-03    1.66832E+00
 3.51910E-03    1.67053E+02
 5.53000E-03    2.88793E+01
 9.11800E-03    1.30268E+02
 1.50300E-02    5.95304E+01
 2.47800E-02    1.94023E+01
 4.08500E-02    2.36123E+01
 6.73400E-02    2.11524E+01
 1.11000E-01    1.86570E+01
 1.83000E-01    1.90178E+01
 3.02000E-01    1.70860E+01
 5.00000E-01    1.66679E+01
 8.21000E-01    1.47587E+01
 1.35300E+00    8.46912E+00
 2.23100E+00    6.79287E+00
 3.67900E+00    2.78758E+00
 6.06500E+00    1.29150E+00
