# n + Zn 66 : (n,d)     
# endfb8.0   N.Iwamoto                         EVAL-Dec09
# uncertainties: n
# # energies =    66
#   E(MeV)       xs(mb) 
 6.80268E+00    0.00000E+00
 7.58511E+00    3.07310E-07
 7.93531E+00    2.83524E-05
 8.00000E+00    3.35553E-05
 8.30718E+00    1.01402E-04
 8.45095E+00    1.33226E-04
 8.50000E+00    1.44085E-04
 8.55407E+00    2.75973E-04
 8.92907E+00    1.19243E-03
 8.94237E+00    1.22493E-03
 9.00000E+00    1.36578E-03
 9.04938E+00    2.09147E-03
 9.11604E+00    3.07121E-03
 9.16737E+00    3.82567E-03
 9.24610E+00    4.98290E-03
 9.36707E+00    6.76102E-03
 9.37448E+00    6.86994E-03
 9.37535E+00    6.88272E-03
 9.43576E+00    7.77069E-03
 9.46277E+00    8.16771E-03
 9.48663E+00    8.51842E-03
 9.49289E+00    8.61044E-03
 9.49820E+00    8.68849E-03
 9.50000E+00    8.71495E-03
 9.51252E+00    9.37190E-03
 9.59760E+00    1.38362E-02
 9.68512E+00    1.84286E-02
 9.70925E+00    1.96948E-02
 9.71344E+00    1.99147E-02
 9.72113E+00    2.03182E-02
 9.74146E+00    2.13850E-02
 9.74956E+00    2.18100E-02
 9.79538E+00    2.42143E-02
 9.82523E+00    2.57807E-02
 9.83843E+00    2.64733E-02
 9.84543E+00    2.68406E-02
 9.88513E+00    2.89238E-02
 9.92879E+00    3.12148E-02
 9.92949E+00    3.12515E-02
 9.93590E+00    3.15879E-02
 9.96636E+00    3.31862E-02
 9.97062E+00    3.34098E-02
 9.97753E+00    3.37724E-02
 9.98260E+00    3.40384E-02
 9.99377E+00    3.46245E-02
 1.00000E+01    3.49515E-02
 1.05000E+01    1.10541E-01
 1.10000E+01    2.76818E-01
 1.15000E+01    5.78728E-01
 1.20000E+01    1.04003E+00
 1.25000E+01    1.65330E+00
 1.30000E+01    2.40276E+00
 1.35000E+01    3.25272E+00
 1.40000E+01    4.17959E+00
 1.45000E+01    4.89459E+00
 1.50000E+01    5.88223E+00
 1.55000E+01    6.86435E+00
 1.60000E+01    7.88096E+00
 1.65000E+01    8.88626E+00
 1.70000E+01    9.89892E+00
 1.75000E+01    1.08867E+01
 1.80000E+01    1.18748E+01
 1.85000E+01    1.28310E+01
 1.90000E+01    1.37820E+01
 1.95000E+01    1.46967E+01
 2.00000E+01    1.55903E+01
