# n + Yb171 : (n,n'08)  
# jendl4.0   S.Kunieda, A.Ichihara, K.Shibata+ EVAL-FEB10
# uncertainties: n
# # energies =    55
#   E(MeV)       xs(mb) 
 2.48063E-01    0.00000E+00
 2.50000E-01    1.97900E-02
 3.00000E-01    9.09000E-01
 3.50000E-01    3.15200E+00
 4.00000E-01    6.93600E+00
 4.50000E-01    1.21900E+01
 5.00000E-01    1.87000E+01
 5.50000E-01    2.61900E+01
 6.00000E-01    3.43400E+01
 6.50000E-01    4.28900E+01
 7.00000E-01    5.16200E+01
 7.50000E-01    6.03300E+01
 8.00000E-01    6.86200E+01
 8.50000E-01    7.61700E+01
 9.00000E-01    8.27100E+01
 9.50000E-01    8.76700E+01
 1.00000E+00    9.01000E+01
 1.20000E+00    1.03900E+02
 1.40000E+00    1.02600E+02
 1.60000E+00    9.68100E+01
 1.80000E+00    8.96100E+01
 2.00000E+00    8.23800E+01
 2.20000E+00    7.57300E+01
 2.40000E+00    6.99500E+01
 2.60000E+00    6.51300E+01
 2.80000E+00    6.11600E+01
 3.00000E+00    5.79000E+01
 3.25000E+00    5.44700E+01
 3.50000E+00    5.17800E+01
 3.75000E+00    4.94600E+01
 4.00000E+00    4.74300E+01
 4.25000E+00    4.56500E+01
 4.50000E+00    4.40900E+01
 4.75000E+00    4.27000E+01
 5.00000E+00    4.14600E+01
 5.50000E+00    3.92600E+01
 6.00000E+00    3.72600E+01
 6.50000E+00    3.53700E+01
 7.00000E+00    3.35500E+01
 7.50000E+00    3.17800E+01
 8.00000E+00    3.00500E+01
 8.50000E+00    2.83700E+01
 9.00000E+00    2.67700E+01
 9.50000E+00    2.52600E+01
 1.00000E+01    2.38700E+01
 1.10000E+01    2.14600E+01
 1.20000E+01    1.94900E+01
 1.30000E+01    1.78600E+01
 1.40000E+01    1.64800E+01
 1.50000E+01    1.53100E+01
 1.60000E+01    1.43000E+01
 1.70000E+01    1.34200E+01
 1.80000E+01    1.26500E+01
 1.90000E+01    1.19500E+01
 2.00000E+01    1.13100E+01
