# n + Nb 94 : (n,xa)    
# jendl4.0   A.Ichihara, K.Shibata, S.Kunieda+ EVAL-NOV09
# 
# # energies =    73
#   E(MeV)        xs(mb) 
 4.13413E-02    0.00000E+00
 5.00000E-02    0.00000E+00
 5.93275E-02    0.00000E+00
 6.00000E-02    0.00000E+00
 7.00000E-02    0.00000E+00
 7.95130E-02    0.00000E+00
 8.00000E-02    0.00000E+00
 1.00000E-01    0.00000E+00
 1.14619E-01    0.00000E+00
 1.20000E-01    0.00000E+00
 1.40000E-01    0.00000E+00
 1.41815E-01    0.00000E+00
 1.60000E-01    0.00000E+00
 1.80000E-01    0.00000E+00
 2.00000E-01    0.00000E+00
 2.50000E-01    0.00000E+00
 3.00000E-01    0.00000E+00
 3.04810E-01    0.00000E+00
 3.15161E-01    0.00000E+00
 3.37693E-01    0.00000E+00
 3.50000E-01    0.00000E+00
 4.00000E-01    0.00000E+00
 4.00511E-01    0.00000E+00
 4.55055E-01    0.00000E+00
 5.00000E-01    0.00000E+00
 6.00000E-01    0.00000E+00
 6.38304E-01    0.00000E+00
 6.47874E-01    0.00000E+00
 6.73366E-01    0.00000E+00
 7.00000E-01    0.00000E+00
 7.94341E-01    0.00000E+00
 8.00000E-01    0.00000E+00
 8.01083E-01    0.00000E+00
 8.25725E-01    0.00000E+00
 9.00000E-01    0.00000E+00
 9.05281E-01    0.00000E+00
 9.34450E-01    0.00000E+00
 9.42708E-01    0.00000E+00
 9.45215E-01    0.00000E+00
 9.67714E-01    0.00000E+00
 9.80742E-01    0.00000E+00
 9.87292E-01    0.00000E+00
 9.89900E-01    0.00000E+00
 1.00000E+00    0.00000E+00
 1.01600E+00    2.98089E-05
 1.02196E+00    4.09203E-05
 1.03440E+00    6.41065E-05
 1.04125E+00    7.68746E-05
 1.07175E+00    1.33697E-04
 1.08186E+00    1.52532E-04
 1.50000E+00    9.31700E-04
 2.00000E+00    6.16500E-03
 2.50000E+00    1.64800E-02
 3.00000E+00    3.60500E-02
 3.50000E+00    6.00800E-02
 4.00000E+00    9.72200E-02
 5.00000E+00    2.23100E-01
 6.00000E+00    4.95300E-01
 7.00000E+00    1.02200E+00
 7.30000E+00    1.27400E+00
 8.00000E+00    2.05300E+00
 9.00000E+00    3.63202E+00
 1.00000E+01    5.66259E+00
 1.10000E+01    7.87365E+00
 1.20000E+01    1.01163E+01
 1.30000E+01    1.22629E+01
 1.40000E+01    1.42350E+01
 1.50000E+01    1.59760E+01
 1.60000E+01    1.74610E+01
 1.70000E+01    1.87490E+01
 1.80000E+01    1.98560E+01
 1.90000E+01    2.08180E+01
 2.00000E+01    2.15870E+01
