# n + Dy160 : (n,p)     
# jendl.ad   N.Iwamoto                         EVAL-Apr14
# uncertainties: n
# # energies =    61
#   E(MeV)       xs(mb) 
 1.05942E+00    0.00000E+00
 1.12351E+00    3.12410E-15
 1.12393E+00    3.14960E-15
 1.13878E+00    4.12090E-15
 1.13901E+00    4.13680E-15
 1.16566E+00    6.05840E-15
 1.18670E+00    7.66630E-15
 1.19348E+00    8.18700E-15
 1.19903E+00    8.62330E-15
 1.19977E+00    8.68230E-15
 1.21685E+00    1.00740E-14
 1.22823E+00    1.10100E-14
 1.22918E+00    1.10880E-14
 1.23737E+00    1.17690E-14
 1.26109E+00    1.37430E-14
 1.28345E+00    1.73250E-14
 1.29367E+00    1.91770E-14
 1.29789E+00    2.01060E-14
 1.30512E+00    2.19880E-14
 1.31858E+00    2.57540E-14
 1.32632E+00    2.80300E-14
 1.32993E+00    2.91280E-14
 1.34018E+00    3.24460E-14
 2.25000E+00    3.34610E-13
 2.50000E+00    1.60390E-11
 2.75000E+00    7.14760E-10
 3.00000E+00    1.40570E-08
 3.50000E+00    1.00748E-06
 4.00000E+00    1.80056E-05
 4.50000E+00    1.36458E-04
 5.00000E+00    5.86119E-04
 5.50000E+00    1.70336E-03
 6.00000E+00    3.77993E-03
 6.50000E+00    7.05803E-03
 7.00000E+00    1.20839E-02
 7.50000E+00    2.05822E-02
 8.00000E+00    3.65411E-02
 8.50000E+00    6.71523E-02
 9.00000E+00    1.23606E-01
 9.50000E+00    2.21385E-01
 1.00000E+01    3.79542E-01
 1.05000E+01    6.19094E-01
 1.10000E+01    9.58762E-01
 1.15000E+01    1.41668E+00
 1.20000E+01    2.00202E+00
 1.25000E+01    2.72339E+00
 1.30000E+01    3.57969E+00
 1.35000E+01    4.57088E+00
 1.40000E+01    5.68551E+00
 1.45000E+01    6.91248E+00
 1.50000E+01    8.22633E+00
 1.55000E+01    9.60109E+00
 1.60000E+01    1.09937E+01
 1.65000E+01    1.23712E+01
 1.70000E+01    1.36871E+01
 1.75000E+01    1.49325E+01
 1.80000E+01    1.60740E+01
 1.85000E+01    1.70896E+01
 1.90000E+01    1.79900E+01
 1.95000E+01    1.87619E+01
 2.00000E+01    1.94552E+01
