# n + Dy160 : (n,t)     
# jendl.ad   N.Iwamoto                         EVAL-Apr14
# uncertainties: n
# # energies =    65
#   E(MeV)       xs(mb) 
 7.12399E+00    0.00000E+00
 7.17937E+00    2.41420E-24
 7.20439E+00    3.50480E-24
 7.23498E+00    4.83830E-24
 7.24022E+00    5.07650E-24
 7.25310E+00    5.66200E-24
 7.29244E+00    7.45010E-24
 7.30402E+00    7.97650E-24
 7.33310E+00    9.29830E-24
 7.34266E+00    9.73290E-24
 7.36751E+00    1.08620E-23
 7.40636E+00    1.26280E-23
 7.42437E+00    1.34470E-23
 7.44862E+00    1.45490E-23
 7.45003E+00    1.46130E-23
 7.46422E+00    1.52580E-23
 7.48606E+00    1.62510E-23
 7.49753E+00    1.67720E-23
 7.50749E+00    1.72250E-23
 7.51484E+00    1.75590E-23
 7.53255E+00    1.83640E-23
 7.53466E+00    1.84600E-23
 7.54593E+00    1.89720E-23
 7.56576E+00    1.98740E-23
 7.57119E+00    2.01210E-23
 7.58779E+00    2.08750E-23
 7.59665E+00    2.12780E-23
 7.61104E+00    2.19320E-23
 7.61436E+00    2.20830E-23
 7.62251E+00    2.24530E-23
 7.63308E+00    2.29340E-23
 7.65834E+00    2.40820E-23
 7.66337E+00    2.43110E-23
 7.66739E+00    2.44930E-23
 7.68349E+00    2.52250E-23
 7.69859E+00    2.59110E-23
 7.71469E+00    2.66430E-23
 7.71771E+00    2.67810E-23
 7.72928E+00    2.73060E-23
 7.73794E+00    2.77000E-23
 7.74085E+00    2.78320E-23
 8.50000E+00    6.23390E-23
 9.00000E+00    2.15740E-17
 9.50000E+00    8.37560E-14
 1.00000E+01    2.73370E-11
 1.05000E+01    1.97390E-09
 1.10000E+01    5.31200E-08
 1.15000E+01    7.24070E-07
 1.20000E+01    6.05919E-06
 1.25000E+01    3.53480E-05
 1.30000E+01    1.37246E-04
 1.35000E+01    5.05867E-04
 1.40000E+01    1.55291E-03
 1.45000E+01    4.29581E-03
 1.50000E+01    9.77633E-03
 1.55000E+01    1.95285E-02
 1.60000E+01    3.57333E-02
 1.65000E+01    6.01996E-02
 1.70000E+01    9.25469E-02
 1.75000E+01    1.34535E-01
 1.80000E+01    1.86026E-01
 1.85000E+01    2.46573E-01
 1.90000E+01    3.13655E-01
 1.95000E+01    3.89928E-01
 2.00000E+01    4.70551E-01
