# n + Dy160 : (n,xn)    
# jendl.ad   N.Iwamoto                         EVAL-Apr14
# 
# # energies =   114
#   E(MeV)        xs(mb) 
 8.73354E-02    0.00000E+00
 9.00000E-02    3.14767E+01
 1.00000E-01    1.06380E+02
 1.05000E-01    1.43501E+02
 1.10000E-01    1.80622E+02
 1.20000E-01    2.46090E+02
 1.30000E-01    3.04210E+02
 1.40000E-01    3.55993E+02
 1.50000E-01    4.00710E+02
 1.60000E-01    4.41747E+02
 1.70000E-01    4.77967E+02
 1.80000E-01    5.11159E+02
 1.90000E-01    5.42012E+02
 2.00000E-01    5.69826E+02
 2.25000E-01    6.32083E+02
 2.50000E-01    6.84315E+02
 2.75000E-01    7.32442E+02
 2.85612E-01    7.51726E+02
 3.00000E-01    7.75121E+02
 4.00000E-01    9.25619E+02
 5.00000E-01    1.05465E+03
 5.84727E-01    1.15633E+03
 6.00000E-01    1.17301E+03
 7.00000E-01    1.28279E+03
 8.00000E-01    1.38354E+03
 9.00000E-01    1.47423E+03
 9.72263E-01    1.53200E+03
 9.72948E-01    1.54035E+03
 1.00000E+00    1.59975E+03
 1.05572E+00    1.67782E+03
 1.10000E+00    1.75352E+03
 1.16313E+00    1.82878E+03
 1.20000E+00    1.86836E+03
 1.27273E+00    1.93050E+03
 1.28801E+00    1.95522E+03
 1.29371E+00    1.97053E+03
 1.29482E+00    1.97863E+03
 1.29483E+00    1.97865E+03
 1.29679E+00    1.98791E+03
 1.30000E+00    1.99805E+03
 1.35827E+00    2.10793E+03
 1.36724E+00    2.13097E+03
 1.39520E+00    2.18776E+03
 1.40000E+00    2.19768E+03
 1.40778E+00    2.21098E+03
 1.41735E+00    2.22901E+03
 1.43704E+00    2.26005E+03
 1.44761E+00    2.27529E+03
 1.46594E+00    2.29997E+03
 1.49889E+00    2.34665E+03
 1.50000E+00    2.35026E+03
 1.52800E+00    2.38382E+03
 1.53193E+00    2.39098E+03
 1.54483E+00    2.40668E+03
 1.56641E+00    2.42984E+03
 1.59675E+00    2.46325E+03
 1.60000E+00    2.46693E+03
 1.60443E+00    2.47084E+03
 1.61390E+00    2.47896E+03
 1.61697E+00    2.48160E+03
 1.61698E+00    2.48161E+03
 1.61800E+00    2.48245E+03
 1.62416E+00    2.48760E+03
 1.62747E+00    2.49025E+03
 1.65362E+00    2.50942E+03
 1.66128E+00    2.51566E+03
 1.66237E+00    2.51668E+03
 1.66409E+00    2.51814E+03
 1.66543E+00    2.51927E+03
 1.68667E+00    2.53484E+03
 1.70000E+00    2.54539E+03
 1.70505E+00    2.54898E+03
 1.71891E+00    2.55869E+03
 1.80000E+00    2.60843E+03
 1.90000E+00    2.66536E+03
 2.00000E+00    2.72702E+03
 2.25000E+00    2.82586E+03
 2.50000E+00    2.89294E+03
 2.75000E+00    2.93233E+03
 3.00000E+00    2.96664E+03
 3.50000E+00    3.00593E+03
 4.00000E+00    3.02249E+03
 4.50000E+00    3.01750E+03
 5.00000E+00    2.99743E+03
 5.50000E+00    2.97017E+03
 6.00000E+00    2.94110E+03
 6.50000E+00    2.91282E+03
 7.00000E+00    2.88655E+03
 7.50000E+00    2.86252E+03
 8.00000E+00    2.84032E+03
 8.50000E+00    2.81941E+03
 9.00000E+00    2.85641E+03
 9.50000E+00    3.17349E+03
 1.00000E+01    3.56391E+03
 1.05000E+01    3.89378E+03
 1.10000E+01    4.12753E+03
 1.15000E+01    4.29153E+03
 1.20000E+01    4.40177E+03
 1.25000E+01    4.48305E+03
 1.30000E+01    4.54000E+03
 1.35000E+01    4.58440E+03
 1.40000E+01    4.61566E+03
 1.45000E+01    4.63631E+03
 1.50000E+01    4.65312E+03
 1.55000E+01    4.66451E+03
 1.60000E+01    4.67195E+03
 1.65000E+01    4.69346E+03
 1.70000E+01    4.75650E+03
 1.75000E+01    4.87006E+03
 1.80000E+01    5.01829E+03
 1.85000E+01    5.19016E+03
 1.90000E+01    5.36995E+03
 1.95000E+01    5.53231E+03
 2.00000E+01    5.67913E+03
