# n + Xe132 : (n,xn)    
# jendl.ad   kunieda                           EVAL-Mar14
# 
# # energies =    64
#   E(MeV)        xs(mb) 
 1.50000E-01    0.00000E+00
 2.00000E-01    2.47787E-04
 3.00000E-01    1.82990E-03
 4.00000E-01    6.51032E-03
 5.00000E-01    1.66747E-02
 6.00000E-01    3.54314E-02
 6.72826E-01    6.36827E-02
 7.00000E-01    1.63486E+02
 8.00000E-01    3.28970E+02
 9.00000E-01    4.22829E+02
 1.00000E+00    4.95150E+02
 1.20000E+00    6.14524E+02
 1.30784E+00    6.70788E+02
 1.30785E+00    6.70786E+02
 1.40000E+00    8.01048E+02
 1.45134E+00    8.44832E+02
 1.60000E+00    9.61910E+02
 1.80000E+00    1.07881E+03
 1.81751E+00    1.08804E+03
 1.86415E+00    1.12664E+03
 1.97801E+00    1.19745E+03
 2.00000E+00    1.21083E+03
 2.00083E+00    1.21132E+03
 2.05596E+00    1.26061E+03
 2.12642E+00    1.30753E+03
 2.12800E+00    1.30870E+03
 2.20000E+00    1.35273E+03
 2.40000E+00    1.48413E+03
 2.70000E+00    1.68837E+03
 3.00000E+00    1.87500E+03
 3.50000E+00    2.12133E+03
 4.00000E+00    2.26572E+03
 4.50000E+00    2.31196E+03
 5.00000E+00    2.29451E+03
 5.50000E+00    2.25072E+03
 6.00000E+00    2.19270E+03
 6.50000E+00    2.14310E+03
 7.00000E+00    2.10870E+03
 7.50000E+00    2.09010E+03
 8.00000E+00    2.08402E+03
 8.50000E+00    2.08524E+03
 9.00000E+00    2.08872E+03
 9.50000E+00    2.21099E+03
 1.00000E+01    2.55733E+03
 1.05000E+01    2.93429E+03
 1.10000E+01    3.20359E+03
 1.15000E+01    3.41084E+03
 1.20000E+01    3.54751E+03
 1.25000E+01    3.63623E+03
 1.30000E+01    3.69398E+03
 1.35000E+01    3.72080E+03
 1.40000E+01    3.74362E+03
 1.45000E+01    3.75635E+03
 1.50000E+01    3.76113E+03
 1.55000E+01    3.76388E+03
 1.60000E+01    3.76798E+03
 1.65000E+01    3.76830E+03
 1.70000E+01    3.77594E+03
 1.75000E+01    3.81204E+03
 1.80000E+01    3.86028E+03
 1.85000E+01    3.95003E+03
 1.90000E+01    4.04694E+03
 1.95000E+01    4.15526E+03
 2.00000E+01    4.27311E+03
