# n + Lu175 : (n,xa)    
# jendl.ad   N.Iwamoto                         EVAL-Apr14
# 
# # energies =    98
#   E(MeV)        xs(mb) 
 1.05000E-01    1.94418E-05
 1.10000E-01    1.92640E-05
 1.14462E-01    1.91053E-05
 1.20000E-01    1.79311E-05
 1.30000E-01    1.69737E-05
 1.40000E-01    1.62365E-05
 1.50000E-01    1.56207E-05
 1.60000E-01    1.50494E-05
 1.70000E-01    1.48232E-05
 1.80000E-01    1.45999E-05
 1.90000E-01    1.52090E-05
 2.00000E-01    1.50383E-05
 2.25000E-01    1.46499E-05
 2.50000E-01    1.43720E-05
 2.52915E-01    1.43777E-05
 2.75000E-01    1.41129E-05
 3.00000E-01    1.49396E-05
 3.45360E-01    1.51166E-05
 3.55518E-01    1.44937E-05
 3.72928E-01    1.34582E-05
 3.98613E-01    1.33857E-05
 4.00000E-01    1.32816E-05
 4.14768E-01    1.28904E-05
 4.17373E-01    1.28122E-05
 4.35235E-01    1.22123E-05
 5.00000E-01    1.15429E-05
 5.17627E-01    1.14177E-05
 5.32302E-01    1.12953E-05
 5.49550E-01    1.11675E-05
 5.65542E-01    1.09933E-05
 5.98682E-01    1.15556E-05
 6.00000E-01    1.15539E-05
 6.30142E-01    1.15998E-05
 6.36408E-01    1.16094E-05
 6.76709E-01    1.18540E-05
 6.88246E-01    1.26501E-05
 6.89271E-01    1.26426E-05
 7.00000E-01    1.26692E-05
 7.61717E-01    1.31988E-05
 7.77899E-01    1.33162E-05
 7.77900E-01    1.33162E-05
 8.00000E-01    1.43458E-05
 8.02702E-01    1.43795E-05
 8.04562E-01    1.44026E-05
 8.49973E-01    1.49682E-05
 8.68680E-01    1.52653E-05
 8.70993E-01    1.53020E-05
 8.91410E-01    1.66735E-05
 9.00000E-01    1.67961E-05
 1.00000E+00    1.95947E-05
 1.10000E+00    2.26662E-05
 1.20000E+00    2.62063E-05
 1.30000E+00    3.02471E-05
 1.40000E+00    3.49961E-05
 1.50000E+00    4.04616E-05
 1.60000E+00    4.67009E-05
 1.70000E+00    5.39355E-05
 1.80000E+00    6.21822E-05
 1.90000E+00    7.15087E-05
 2.00000E+00    8.22716E-05
 2.25000E+00    1.13893E-04
 2.50000E+00    1.66099E-04
 2.75000E+00    2.17024E-04
 3.00000E+00    3.62760E-04
 3.50000E+00    6.17940E-04
 4.00000E+00    9.87341E-04
 4.50000E+00    1.59611E-03
 5.00000E+00    2.49647E-03
 5.50000E+00    3.78845E-03
 6.00000E+00    5.60866E-03
 6.50000E+00    8.20197E-03
 7.00000E+00    1.20465E-02
 7.50000E+00    1.79191E-02
 8.00000E+00    2.69237E-02
 8.50000E+00    3.96804E-02
 9.00000E+00    5.81430E-02
 9.50000E+00    8.47379E-02
 1.00000E+01    1.22343E-01
 1.05000E+01    1.73609E-01
 1.10000E+01    2.40870E-01
 1.15000E+01    3.25769E-01
 1.20000E+01    4.29031E-01
 1.25000E+01    5.50405E-01
 1.30000E+01    6.88811E-01
 1.35000E+01    8.42565E-01
 1.40000E+01    1.00960E+00
 1.45000E+01    1.18769E+00
 1.50000E+01    1.37445E+00
 1.55000E+01    1.56807E+00
 1.60000E+01    1.76655E+00
 1.65000E+01    1.96794E+00
 1.70000E+01    2.17085E+00
 1.75000E+01    2.37406E+00
 1.80000E+01    2.57652E+00
 1.85000E+01    2.77740E+00
 1.90000E+01    2.97602E+00
 1.95000E+01    3.17185E+00
 2.00000E+01    3.36462E+00
