# n + Lu175 : (n,xp)    
# jendl.ad   N.Iwamoto                         EVAL-Apr14
# 
# # energies =    98
#   E(MeV)        xs(mb) 
 1.05000E-01    1.62006E-18
 1.10000E-01    1.85907E-18
 1.14462E-01    2.07236E-18
 1.20000E-01    2.33709E-18
 1.30000E-01    2.81511E-18
 1.40000E-01    3.29313E-18
 1.50000E-01    3.84189E-18
 1.60000E-01    4.81322E-18
 1.70000E-01    5.78455E-18
 1.80000E-01    6.75588E-18
 1.90000E-01    7.72721E-18
 2.00000E-01    8.69855E-18
 2.25000E-01    1.28649E-17
 2.50000E-01    1.83525E-17
 2.52915E-01    1.90871E-17
 2.75000E-01    2.46523E-17
 3.00000E-01    3.10415E-17
 3.45360E-01    4.40952E-17
 3.55518E-01    4.74498E-17
 3.72928E-01    5.31992E-17
 3.98613E-01    6.18530E-17
 4.00000E-01    6.23336E-17
 4.14768E-01    6.74506E-17
 4.17373E-01    6.83532E-17
 4.35235E-01    7.59913E-17
 5.00000E-01    1.04831E-16
 5.17627E-01    1.13706E-16
 5.32302E-01    1.21185E-16
 5.49550E-01    1.30681E-16
 5.65542E-01    1.39605E-16
 5.98682E-01    1.58525E-16
 6.00000E-01    1.59280E-16
 6.30142E-01    1.76737E-16
 6.36408E-01    1.80438E-16
 6.76709E-01    2.04680E-16
 6.88246E-01    2.11766E-16
 6.89271E-01    2.12395E-16
 7.00000E-01    2.61620E-16
 7.61717E-01    7.87920E-16
 7.77899E-01    1.08988E-15
 7.77900E-01    1.08990E-15
 8.00000E-01    1.77150E-15
 8.02702E-01    1.90960E-15
 8.04562E-01    1.99210E-15
 8.49973E-01    5.77130E-15
 8.68680E-01    8.99250E-15
 8.70993E-01    9.49800E-15
 8.91410E-01    1.52720E-14
 9.00000E-01    1.86120E-14
 1.00000E+00    1.61430E-13
 1.10000E+00    1.08630E-12
 1.20000E+00    5.92040E-12
 1.30000E+00    2.70480E-11
 1.40000E+00    1.06490E-10
 1.50000E+00    3.69190E-10
 1.60000E+00    1.14560E-09
 1.70000E+00    3.22820E-09
 1.80000E+00    8.35920E-09
 1.90000E+00    2.00900E-08
 2.00000E+00    4.51820E-08
 2.25000E+00    2.73338E-07
 2.50000E+00    1.22851E-06
 2.75000E+00    4.27395E-06
 3.00000E+00    1.23341E-05
 3.50000E+00    6.81265E-05
 4.00000E+00    2.44412E-04
 4.50000E+00    6.41627E-04
 5.00000E+00    1.34640E-03
 5.50000E+00    2.45008E-03
 6.00000E+00    4.22857E-03
 6.50000E+00    7.65879E-03
 7.00000E+00    1.54704E-02
 7.50000E+00    3.35050E-02
 8.00000E+00    7.28039E-02
 8.50000E+00    1.51158E-01
 9.00000E+00    2.94621E-01
 9.50000E+00    5.36160E-01
 1.00000E+01    9.12298E-01
 1.05000E+01    1.46127E+00
 1.10000E+01    2.21428E+00
 1.15000E+01    3.19858E+00
 1.20000E+01    4.43408E+00
 1.25000E+01    5.93542E+00
 1.30000E+01    7.71269E+00
 1.35000E+01    9.77208E+00
 1.40000E+01    1.21160E+01
 1.45000E+01    1.47436E+01
 1.50000E+01    1.76511E+01
 1.55000E+01    2.08318E+01
 1.60000E+01    2.42766E+01
 1.65000E+01    2.79742E+01
 1.70000E+01    3.19111E+01
 1.75000E+01    3.60718E+01
 1.80000E+01    4.04396E+01
 1.85000E+01    4.49964E+01
 1.90000E+01    4.97231E+01
 1.95000E+01    5.46069E+01
 2.00000E+01    5.96200E+01
