# n + Zr 93 : (n,xa)    
# jendl4.0   A.Ichihara, K.Shibata, S.Kunieda+ EVAL-SEP09
# 
# # energies =    78
#   E(MeV)        xs(mb) 
 2.69778E-01    0.00000E+00
 3.00000E-01    0.00000E+00
 3.50000E-01    0.00000E+00
 4.00000E-01    0.00000E+00
 4.50000E-01    0.00000E+00
 5.00000E-01    0.00000E+00
 6.00000E-01    0.00000E+00
 7.00000E-01    0.00000E+00
 8.00000E-01    0.00000E+00
 9.00000E-01    0.00000E+00
 9.57423E-01    0.00000E+00
 1.00000E+00    0.00000E+00
 1.02905E+00    0.00000E+00
 1.10000E+00    0.00000E+00
 1.18129E+00    0.00000E+00
 1.20000E+00    0.00000E+00
 1.23527E+00    0.00000E+00
 1.30000E+00    0.00000E+00
 1.40000E+00    0.00000E+00
 1.44088E+00    0.00000E+00
 1.46620E+00    0.00000E+00
 1.47888E+00    0.00000E+00
 1.48611E+00    0.00000E+00
 1.50000E+00    0.00000E+00
 1.60000E+00    0.00000E+00
 1.61535E+00    0.00000E+00
 1.65983E+00    0.00000E+00
 1.70000E+00    0.00000E+00
 1.75384E+00    0.00000E+00
 1.80000E+00    0.00000E+00
 1.90000E+00    0.00000E+00
 1.93029E+00    4.64983E-04
 1.93939E+00    6.04621E-04
 2.00000E+00    1.53500E-03
 2.04698E+00    2.21910E-03
 2.06215E+00    2.43988E-03
 2.06922E+00    2.54290E-03
 2.09753E+00    2.95501E-03
 2.10000E+00    2.99100E-03
 2.10056E+00    2.99502E-03
 2.11743E+00    3.11616E-03
 2.20000E+00    3.70900E-03
 2.20834E+00    3.76703E-03
 2.30000E+00    4.40500E-03
 2.30071E+00    4.41023E-03
 2.32699E+00    4.60393E-03
 2.38865E+00    5.05839E-03
 2.40000E+00    5.14200E-03
 2.41696E+00    5.32024E-03
 2.48433E+00    6.02833E-03
 2.50000E+00    6.19300E-03
 2.50070E+00    6.20934E-03
 2.55888E+00    7.57086E-03
 2.57566E+00    7.96352E-03
 2.58577E+00    8.20007E-03
 2.60000E+00    8.53300E-03
 2.80000E+00    1.21100E-02
 3.00000E+00    2.03600E-02
 3.50000E+00    4.12200E-02
 4.00000E+00    7.48800E-02
 4.50000E+00    1.21500E-01
 5.00000E+00    1.76800E-01
 5.50000E+00    2.30500E-01
 6.00000E+00    2.74300E-01
 7.00000E+00    3.26400E-01
 8.00000E+00    3.87500E-01
 9.00000E+00    5.63000E-01
 1.00000E+01    9.80513E-01
 1.10000E+01    1.71724E+00
 1.20000E+01    2.78842E+00
 1.30000E+01    4.12710E+00
 1.40000E+01    5.68240E+00
 1.50000E+01    7.28200E+00
 1.60000E+01    8.80400E+00
 1.70000E+01    1.02250E+01
 1.80000E+01    1.15380E+01
 1.90000E+01    1.27800E+01
 2.00000E+01    1.39650E+01
