# n + Sc 45 : (n,xa)    
# endfb8.0   A.B.Smith,R.J.Howerton            EVAL-JUL92
# 
# # energies =    82
#   E(MeV)        xs(mb) 
 1.27000E-02    0.00000E+00
 1.00000E-01    0.00000E+00
 2.00000E-01    0.00000E+00
 3.85000E-01    0.00000E+00
 4.00000E-01    0.00000E+00
 5.55100E-01    1.44049E-10
 6.00000E-01    1.87428E-10
 7.36200E-01    3.19014E-10
 8.00000E-01    3.80652E-10
 9.60100E-01    5.35329E-10
 9.96300E-01    5.70302E-10
 1.00000E+00    5.73877E-10
 1.09100E+00    6.61794E-10
 1.20000E+00    7.67102E-10
 1.26500E+00    8.29900E-10
 1.33200E+00    8.94630E-10
 1.40000E+00    9.60326E-10
 1.44000E+00    9.98971E-10
 1.46600E+00    1.02409E-09
 1.59100E+00    1.14486E-09
 1.59500E+00    1.14872E-09
 1.69900E+00    1.24920E-09
 1.84000E+00    1.38542E-09
 1.89500E+00    1.43856E-09
 1.90000E+00    1.44339E-09
 2.00000E+00    1.54000E-09
 2.10000E+00    1.87014E-05
 2.17000E+00    3.17913E-05
 2.25000E+00    4.67512E-05
 2.37000E+00    6.91910E-05
 2.38000E+00    7.10609E-05
 2.50000E+00    9.35008E-05
 2.62000E+00    1.15941E-04
 2.75000E+00    1.40250E-04
 2.86200E+00    1.61194E-04
 3.00000E+00    1.87000E-04
 3.20000E+00    6.78960E-03
 3.25000E+00    8.44025E-03
 3.46800E+00    1.56371E-02
 3.50000E+00    1.66935E-02
 3.75000E+00    2.49468E-02
 3.83000E+00    2.75878E-02
 4.00000E+00    3.32000E-02
 4.50000E+00    5.07600E-01
 4.77000E+00    7.63776E-01
 5.00000E+00    9.82000E-01
 5.50000E+00    2.99100E+00
 5.90000E+00    4.59820E+00
 6.00000E+00    5.00000E+00
 6.50000E+00    8.30000E+00
 7.00000E+00    1.16000E+01
 7.04400E+00    1.18200E+01
 7.14000E+00    1.23000E+01
 7.50000E+00    1.41000E+01
 8.00000E+00    1.66000E+01
 8.03000E+00    1.67050E+01
 8.03000E+00    1.67050E+01
 8.11000E+00    1.69850E+01
 8.40000E+00    1.80017E+01
 9.00000E+00    2.01052E+01
 9.06000E+00    2.03876E+01
 9.50000E+00    2.24581E+01
 9.75500E+00    2.36581E+01
 1.00000E+01    2.48111E+01
 1.10000E+01    3.00169E+01
 1.15800E+01    3.19343E+01
 1.15900E+01    3.19674E+01
 1.20000E+01    3.33228E+01
 1.25000E+01    3.70639E+01
 1.30000E+01    4.08050E+01
 1.35000E+01    4.39075E+01
 1.40000E+01    4.70100E+01
 1.45000E+01    5.01050E+01
 1.50000E+01    5.32000E+01
 1.55000E+01    5.61000E+01
 1.60000E+01    5.90000E+01
 1.65000E+01    6.37000E+01
 1.70000E+01    6.84000E+01
 1.75000E+01    6.97500E+01
 1.80000E+01    7.11000E+01
 1.90000E+01    7.48000E+01
 2.00000E+01    7.64000E+01
