# n + Ca 43 : (n,xa)    
# jendl4.0   K.Shibata                         EVAL-JUN06
# 
# # energies =    76
#   E(MeV)        xs(mb) 
 3.81553E-01    2.26156E-03
 4.00000E-01    2.42500E-03
 5.00000E-01    3.62600E-03
 6.00000E-01    5.89100E-03
 6.07333E-01    5.92437E-03
 7.00000E-01    6.34600E-03
 8.00000E-01    9.43800E-03
 9.00000E-01    1.44300E-02
 1.00000E+00    2.19800E-02
 1.01355E+00    2.46802E-02
 1.42724E+00    1.07108E-01
 1.50000E+00    1.21604E-01
 1.71720E+00    2.70114E-01
 1.94645E+00    4.26873E-01
 1.97665E+00    4.47518E-01
 2.00000E+00    4.63486E-01
 2.00336E+00    4.67663E-01
 2.09435E+00    5.80766E-01
 2.11584E+00    6.07484E-01
 2.14306E+00    6.41325E-01
 2.15207E+00    6.52521E-01
 2.27622E+00    8.06846E-01
 2.30181E+00    8.38653E-01
 2.32606E+00    8.68806E-01
 2.46638E+00    1.04323E+00
 2.50000E+00    1.08502E+00
 2.58224E+00    1.27604E+00
 2.67231E+00    1.48523E+00
 2.73648E+00    1.63428E+00
 2.76022E+00    1.68943E+00
 2.81764E+00    1.82279E+00
 2.81866E+00    1.82517E+00
 2.83473E+00    1.86249E+00
 2.91252E+00    2.04316E+00
 2.94557E+00    2.11994E+00
 3.00000E+00    2.24635E+00
 3.01231E+00    2.28482E+00
 3.02070E+00    2.31106E+00
 3.09971E+00    2.55807E+00
 3.12100E+00    2.62462E+00
 3.12212E+00    2.62814E+00
 3.14812E+00    2.70941E+00
 3.16880E+00    2.77404E+00
 3.16982E+00    2.77724E+00
 3.27135E+00    3.09464E+00
 3.35497E+00    3.35604E+00
 3.36285E+00    3.38068E+00
 3.39314E+00    3.47539E+00
 3.45046E+00    3.65457E+00
 3.45629E+00    3.67281E+00
 3.49928E+00    3.80719E+00
 3.50000E+00    3.80945E+00
 4.00000E+00    5.70852E+00
 4.50000E+00    7.98621E+00
 5.00000E+00    1.06795E+01
 5.50000E+00    1.35202E+01
 6.00000E+00    1.67328E+01
 6.50000E+00    2.05800E+01
 7.00000E+00    2.50300E+01
 7.50000E+00    2.96900E+01
 8.00000E+00    3.41552E+01
 8.50000E+00    3.77782E+01
 9.00000E+00    4.01512E+01
 9.50000E+00    4.11742E+01
 1.00000E+01    4.11772E+01
 1.10000E+01    3.95732E+01
 1.20000E+01    3.87282E+01
 1.30000E+01    3.85916E+01
 1.40000E+01    4.14291E+01
 1.45000E+01    4.39686E+01
 1.50000E+01    4.71090E+01
 1.60000E+01    5.36210E+01
 1.70000E+01    6.00250E+01
 1.80000E+01    6.62650E+01
 1.90000E+01    7.31310E+01
 2.00000E+01    8.10840E+01
