# n + Ca 43 : (n,a)     
# jendl4.0   K.Shibata                         EVAL-JUN06
# uncertainties: n
# # energies =    87
#   E(MeV)       xs(mb) 
 1.00000E-03    0.00000E+00
 1.00000E-02    1.81800E-04
 2.00000E-02    2.24100E-04
 3.00000E-02    2.44100E-04
 4.00000E-02    2.56300E-04
 5.00000E-02    2.65900E-04
 6.00000E-02    2.75100E-04
 7.00000E-02    2.84800E-04
 8.00000E-02    2.94800E-04
 9.00000E-02    3.06300E-04
 1.00000E-01    5.92600E-04
 2.00000E-01    8.40800E-04
 2.52902E-01    1.21016E-03
 3.00000E-01    1.53900E-03
 4.00000E-01    2.42500E-03
 5.00000E-01    3.62600E-03
 6.00000E-01    5.89100E-03
 6.30054E-01    6.02775E-03
 7.00000E-01    6.34600E-03
 8.00000E-01    9.43800E-03
 9.00000E-01    1.44300E-02
 9.52860E-01    1.84209E-02
 1.00000E+00    2.19800E-02
 1.21538E+00    6.48946E-02
 1.26328E+00    7.44384E-02
 1.26707E+00    7.51930E-02
 1.43676E+00    1.09004E-01
 1.50000E+00    1.21604E-01
 1.68035E+00    2.44920E-01
 1.80542E+00    3.30438E-01
 1.84789E+00    3.59481E-01
 1.99476E+00    4.59904E-01
 1.99783E+00    4.62004E-01
 2.00000E+00    4.63486E-01
 2.07132E+00    5.52139E-01
 2.09558E+00    5.82293E-01
 2.19332E+00    7.03794E-01
 2.20048E+00    7.12700E-01
 2.24756E+00    7.71223E-01
 2.26905E+00    7.97941E-01
 2.33896E+00    8.84835E-01
 2.35503E+00    9.04810E-01
 2.37959E+00    9.35345E-01
 2.45328E+00    1.02695E+00
 2.50000E+00    1.08502E+00
 2.55051E+00    1.20234E+00
 2.57610E+00    1.26177E+00
 2.64160E+00    1.41391E+00
 2.71427E+00    1.58269E+00
 2.74497E+00    1.65401E+00
 2.75828E+00    1.68491E+00
 2.77772E+00    1.73008E+00
 2.90464E+00    2.02485E+00
 2.93329E+00    2.09141E+00
 2.95663E+00    2.14561E+00
 3.00000E+00    2.24635E+00
 3.03769E+00    2.36417E+00
 3.06338E+00    2.44448E+00
 3.08681E+00    2.51775E+00
 3.10421E+00    2.57214E+00
 3.14515E+00    2.70013E+00
 3.17381E+00    2.78972E+00
 3.50000E+00    3.80945E+00
 4.00000E+00    5.70852E+00
 4.50000E+00    7.98621E+00
 5.00000E+00    1.06795E+01
 5.50000E+00    1.35202E+01
 6.00000E+00    1.67328E+01
 6.50000E+00    2.05800E+01
 7.00000E+00    2.50300E+01
 7.50000E+00    2.96900E+01
 8.00000E+00    3.41400E+01
 8.50000E+00    3.77300E+01
 9.00000E+00    4.00700E+01
 9.50000E+00    4.10600E+01
 1.00000E+01    4.10300E+01
 1.10000E+01    3.93600E+01
 1.20000E+01    3.75800E+01
 1.30000E+01    3.52000E+01
 1.40000E+01    3.03600E+01
 1.45000E+01    2.68900E+01
 1.50000E+01    2.34000E+01
 1.60000E+01    1.70100E+01
 1.70000E+01    1.23800E+01
 1.80000E+01    9.17700E+00
 1.90000E+01    7.02200E+00
 2.00000E+01    5.50200E+00
