# n + Si 28 : (n,p09)   
# endfb8.0   M.B.Chadwick,P.G.Young,D.Hetrick  EVAL-DEC02
# uncertainties: n
# # energies =    90
#   E(MeV)       xs(mb) 
 6.35308E+00    0.00000E+00
 7.02000E+00    2.82360E-02
 7.04000E+00    5.69304E-02
 7.06000E+00    9.07236E-02
 7.08000E+00    1.24085E-01
 7.09190E+00    1.34078E-01
 7.10000E+00    1.39632E-01
 7.10730E+00    1.40944E-01
 7.11570E+00    1.40950E-01
 7.12000E+00    1.40331E-01
 7.14000E+00    1.56736E-01
 7.16000E+00    1.90623E-01
 7.20000E+00    3.24633E-01
 7.22000E+00    3.57064E-01
 7.26000E+00    4.60924E-01
 7.28000E+00    4.99531E-01
 7.30000E+00    5.07088E-01
 7.36000E+00    5.38818E-01
 7.38000E+00    5.70977E-01
 7.40000E+00    6.31954E-01
 7.42000E+00    6.47362E-01
 7.44000E+00    7.53629E-01
 7.46000E+00    8.28693E-01
 7.50000E+00    5.95147E-01
 7.52000E+00    6.86927E-01
 7.55000E+00    8.59367E-01
 7.58000E+00    1.13633E+00
 7.60000E+00    1.32340E+00
 7.62000E+00    1.44546E+00
 7.64000E+00    1.51977E+00
 7.66000E+00    1.76195E+00
 7.68000E+00    2.18901E+00
 7.68200E+00    2.20928E+00
 7.70000E+00    2.63513E+00
 7.72000E+00    2.68265E+00
 7.74000E+00    2.51348E+00
 7.76000E+00    2.51778E+00
 7.80000E+00    3.04702E+00
 7.82000E+00    3.18643E+00
 7.86000E+00    3.30477E+00
 7.92000E+00    3.82722E+00
 7.96000E+00    4.06632E+00
 7.98000E+00    4.05185E+00
 8.00000E+00    3.90592E+00
 8.03000E+00    3.71499E+00
 8.06000E+00    3.47081E+00
 8.08000E+00    3.53399E+00
 8.10000E+00    3.67409E+00
 8.12000E+00    3.81495E+00
 8.14000E+00    4.08598E+00
 8.16000E+00    4.48248E+00
 8.22000E+00    5.31330E+00
 8.24000E+00    5.39016E+00
 8.26000E+00    5.22303E+00
 8.28000E+00    4.96908E+00
 8.30000E+00    5.11680E+00
 8.32000E+00    5.26529E+00
 8.36000E+00    6.61036E+00
 8.40000E+00    7.70141E+00
 8.42000E+00    8.02612E+00
 8.46000E+00    7.62290E+00
 8.48000E+00    7.52688E+00
 8.50000E+00    7.99418E+00
 8.52000E+00    8.45476E+00
 8.54000E+00    8.71927E+00
 8.56000E+00    8.53481E+00
 8.58000E+00    8.34239E+00
 8.60000E+00    8.34228E+00
 8.62000E+00    9.44070E+00
 8.64000E+00    1.13322E+01
 8.66000E+00    1.19235E+01
 8.68000E+00    1.16496E+01
 8.70000E+00    1.08795E+01
 8.74000E+00    9.64559E+00
 8.76000E+00    9.15842E+00
 8.77000E+00    9.36225E+00
 8.78000E+00    8.89063E+00
 8.80000E+00    8.66688E+00
 8.82000E+00    9.08492E+00
 8.98000E+00    9.93096E+00
 9.00000E+00    1.06612E+01
 9.50000E+00    1.28370E+01
 1.00000E+01    1.36310E+01
 1.10000E+01    1.26050E+01
 1.20000E+01    1.03760E+01
 1.30000E+01    8.00220E+00
 1.45000E+01    5.00920E+00
 1.60000E+01    2.98570E+00
 1.75000E+01    1.81670E+00
 2.00000E+01    1.10870E+00
