# n + Cd  0 : (n,xp)
# jendl.ad   kunieda                           EVAL-Mar14
#
# # energies =    94
#   E(MeV)          xs(mb) 
 1.50000E-01    0.00000E+00
 2.00000E-01    0.00000E+00
 2.47622E-01    0.00000E+00
 3.00000E-01    1.44805E-12
 3.45247E-01    3.59846E-12
 3.99818E-01    6.65864E-12
 4.00000E-01    6.66885E-12
 4.20510E-01    2.64296E-10
 5.00000E-01    1.26278E-09
 6.00000E-01    8.13313E-09
 6.25820E-01    1.29618E-08
 6.86669E-01    2.45937E-08
 7.00000E-01    2.71569E-08
 7.06366E-01    3.17022E-08
 7.11341E-01    3.52544E-08
 7.42694E-01    5.76405E-08
 7.59657E-01    6.97521E-08
 7.61766E-01    7.12580E-08
 8.00000E-01    9.85571E-08
 8.38820E-01    1.85855E-07
 8.61706E-01    2.37321E-07
 8.61707E-01    2.37324E-07
 8.63382E-01    2.41090E-07
 8.72665E-01    2.61966E-07
 8.74482E-01    2.66052E-07
 9.00000E-01    3.23437E-07
 9.76703E-01    8.11338E-07
 9.95502E-01    9.30917E-07
 1.00000E+00    9.59528E-07
 1.02601E+00    1.68927E-06
 1.02928E+00    1.78101E-06
 1.05628E+00    2.53853E-06
 1.06711E+00    2.84238E-06
 1.08806E+00    3.43015E-06
 1.12571E+00    4.48647E-06
 1.12858E+00    4.56699E-06
 1.14028E+00    4.89525E-06
 1.16147E+00    5.48976E-06
 1.19651E+00    6.47284E-06
 1.20000E+00    6.57076E-06
 1.20078E+00    6.67951E-06
 1.26802E+00    1.60540E-05
 1.28627E+00    1.85984E-05
 1.30061E+00    2.05977E-05
 1.31039E+00    2.19612E-05
 1.33363E+00    2.52013E-05
 1.33800E+00    2.58106E-05
 1.33869E+00    2.59068E-05
 1.34210E+00    2.63822E-05
 1.35190E+00    2.77486E-05
 1.35286E+00    2.78824E-05
 1.35353E+00    2.79758E-05
 1.40000E+00    3.44549E-05
 1.60000E+00    1.39672E-04
 1.80000E+00    4.37960E-04
 2.00000E+00    1.15699E-03
 2.20000E+00    2.85356E-03
 2.40000E+00    5.75937E-03
 2.70000E+00    1.04431E-02
 3.00000E+00    1.72586E-02
 3.50000E+00    3.43431E-02
 4.00000E+00    7.17171E-02
 4.50000E+00    1.34656E-01
 5.00000E+00    2.27865E-01
 5.50000E+00    3.63290E-01
 6.00000E+00    5.06668E-01
 6.50000E+00    6.99353E-01
 7.00000E+00    8.76625E-01
 7.50000E+00    1.09188E+00
 8.00000E+00    1.29426E+00
 8.50000E+00    1.53179E+00
 9.00000E+00    1.80763E+00
 9.50000E+00    2.15403E+00
 1.00000E+01    2.59729E+00
 1.05000E+01    3.18541E+00
 1.10000E+01    4.00975E+00
 1.15000E+01    5.02277E+00
 1.20000E+01    6.14656E+00
 1.25000E+01    7.47583E+00
 1.30000E+01    8.91861E+00
 1.35000E+01    1.05697E+01
 1.40000E+01    1.25866E+01
 1.45000E+01    1.46960E+01
 1.50000E+01    1.70785E+01
 1.55000E+01    1.96805E+01
 1.60000E+01    2.24589E+01
 1.65000E+01    2.52975E+01
 1.70000E+01    2.83933E+01
 1.75000E+01    3.16049E+01
 1.80000E+01    3.49337E+01
 1.85000E+01    3.83853E+01
 1.90000E+01    4.19444E+01
 1.95000E+01    4.55630E+01
 2.00000E+01    4.93455E+01
