# n + Pb208 : (n,tot)   
# jendl.ad   O.Iwamoto, N.Iwamoto              EVAL-MAR10
# uncertainties: n
# # energies =    69
#   E(MeV)       xs(mb) 
 1.00000E-10    1.63301E+00
 5.00000E-09    4.44754E-01
 1.00000E-08    3.36859E-01
 1.50000E-08    2.83035E-01
 2.00000E-08    2.49074E-01
 2.50000E-08    2.25069E-01
 3.00000E-08    2.06823E-01
 3.50000E-08    1.90139E-01
 4.20000E-08    1.73924E-01
 5.00000E-08    1.60561E-01
 5.80000E-08    1.49191E-01
 6.70000E-08    1.37695E-01
 8.00000E-08    1.24654E-01
 1.00000E-07    1.08536E-01
 1.40000E-07    9.36711E-02
 1.80000E-07    8.37505E-02
 2.20000E-07    7.71278E-02
 2.50000E-07    7.26254E-02
 2.80000E-07    6.93959E-02
 3.00000E-07    6.71494E-02
 3.20000E-07    6.46870E-02
 3.50000E-07    6.11571E-02
 4.00000E-07    5.60614E-02
 5.00000E-07    5.02380E-02
 6.25000E-07    4.50074E-02
 7.80000E-07    4.17645E-02
 8.50000E-07    4.01911E-02
 9.10000E-07    3.91167E-02
 9.50000E-07    3.85065E-02
 9.72000E-07    3.80592E-02
 9.96000E-07    3.76186E-02
 1.02000E-06    3.72189E-02
 1.04500E-06    3.68039E-02
 1.07100E-06    3.63808E-02
 1.09700E-06    3.59576E-02
 1.12300E-06    3.55264E-02
 1.15000E-06    3.42879E-02
 1.30000E-06    3.21375E-02
 1.50000E-06    2.87324E-02
 2.10000E-06    2.53141E-02
 2.60000E-06    2.26897E-02
 3.30000E-06    2.05958E-02
 4.00000E-06    1.63985E-02
 9.87700E-06    1.24854E-02
 1.59680E-05    1.06816E-02
 2.77000E-05    9.52579E-03
 4.80520E-05    9.10137E-03
 7.55014E-05    9.34440E-03
 1.48728E-04    1.09712E-02
 3.67262E-04    1.49462E-02
 9.06898E-04    1.97701E-02
 1.42510E-03    2.42823E-02
 2.23945E-03    3.00411E-02
 3.51910E-03    3.73352E-02
 5.53000E-03    4.71412E-02
 9.11800E-03    6.03228E-02
 1.50300E-02    7.73582E-02
 2.47800E-02    9.94823E-02
 4.08500E-02    3.76646E-01
 6.73400E-02    5.51787E-01
 1.11000E-01    7.69591E-01
 1.83000E-01    3.36099E-01
 3.02000E-01    6.08549E-01
 5.00000E-01    1.17687E+00
 8.21000E-01    4.83504E-01
 1.35300E+00    5.07780E-01
 2.23100E+00    9.74191E-01
 3.67900E+00    5.28890E-01
 6.06500E+00    3.12848E+02
