# n + Fe 54 : (n,tot)   
# jendl.ad   S.IIJIMA,H.YAMAKOSHI              EVAL-MAR87
# uncertainties: n
# # energies =    69
#   E(MeV)       xs(mb) 
 1.00000E-10    1.57248E+04
 5.00000E-09    4.28160E+03
 1.00000E-08    3.24265E+03
 1.50000E-08    2.72439E+03
 2.00000E-08    2.39687E+03
 2.50000E-08    2.16551E+03
 3.00000E-08    1.99068E+03
 3.50000E-08    1.83025E+03
 4.20000E-08    1.67400E+03
 5.00000E-08    1.54404E+03
 5.80000E-08    1.43515E+03
 6.70000E-08    1.32451E+03
 8.00000E-08    1.19847E+03
 1.00000E-07    1.04268E+03
 1.40000E-07    8.99792E+02
 1.80000E-07    8.03394E+02
 2.20000E-07    7.39826E+02
 2.50000E-07    6.96634E+02
 2.80000E-07    6.65579E+02
 3.00000E-07    6.43684E+02
 3.20000E-07    6.19343E+02
 3.50000E-07    5.85757E+02
 4.00000E-07    5.36039E+02
 5.00000E-07    4.79607E+02
 6.25000E-07    4.29112E+02
 7.80000E-07    3.97127E+02
 8.50000E-07    3.82062E+02
 9.10000E-07    3.71612E+02
 9.50000E-07    3.65567E+02
 9.72000E-07    3.61344E+02
 9.96000E-07    3.57057E+02
 1.02000E-06    3.52909E+02
 1.04500E-06    3.48596E+02
 1.07100E-06    3.44254E+02
 1.09700E-06    3.40279E+02
 1.12300E-06    3.36297E+02
 1.15000E-06    3.24179E+02
 1.30000E-06    3.03334E+02
 1.50000E-06    2.69341E+02
 2.10000E-06    2.34630E+02
 2.60000E-06    2.09552E+02
 3.30000E-06    1.88120E+02
 4.00000E-06    1.44279E+02
 9.87700E-06    1.01534E+02
 1.59680E-05    7.86294E+01
 2.77000E-05    5.98189E+01
 4.80520E-05    4.66694E+01
 7.55014E-05    3.55158E+01
 1.48728E-04    2.44725E+01
 3.67262E-04    1.64697E+01
 9.06898E-04    1.29235E+01
 1.42510E-03    1.19069E+01
 2.23945E-03    1.27330E+01
 3.51910E-03    2.10768E+01
 5.53000E-03    1.67598E+02
 9.11800E-03    1.19145E+02
 1.50300E-02    1.55467E+00
 2.47800E-02    1.17713E+01
 4.08500E-02    1.10849E+01
 6.73400E-02    9.67268E+00
 1.11000E-01    1.50878E+01
 1.83000E-01    1.33651E+01
 3.02000E-01    7.37952E+00
 5.00000E-01    7.22581E+00
 8.21000E-01    8.26129E+00
 1.35300E+00    5.87368E+00
 2.23100E+00    3.86381E+00
 3.67900E+00    4.24558E+00
 6.06500E+00    4.55702E+02
