# n + Os184 : (n,xh)    
# jendl4.0   N.Iwamoto                         EVAL-Jan10
# 
# # energies =    91
#   E(MeV)        xs(mb) 
 1.05000E-01    0.00000E+00
 1.10000E-01    0.00000E+00
 1.20000E-01    0.00000E+00
 1.20457E-01    0.00000E+00
 1.30000E-01    0.00000E+00
 1.40000E-01    0.00000E+00
 1.50000E-01    0.00000E+00
 1.60000E-01    0.00000E+00
 1.70000E-01    0.00000E+00
 1.80000E-01    0.00000E+00
 1.90000E-01    0.00000E+00
 2.00000E-01    0.00000E+00
 2.25000E-01    0.00000E+00
 2.50000E-01    0.00000E+00
 2.75000E-01    0.00000E+00
 3.00000E-01    0.00000E+00
 3.85874E-01    0.00000E+00
 4.00000E-01    0.00000E+00
 5.00000E-01    0.00000E+00
 6.00000E-01    0.00000E+00
 7.00000E-01    0.00000E+00
 7.78385E-01    0.00000E+00
 8.00000E-01    0.00000E+00
 9.00000E-01    0.00000E+00
 9.47950E-01    0.00000E+00
 1.00000E+00    0.00000E+00
 1.04771E+00    0.00000E+00
 1.08695E+00    0.00000E+00
 1.10000E+00    0.00000E+00
 1.20000E+00    0.00000E+00
 1.21462E+00    0.00000E+00
 1.23176E+00    0.00000E+00
 1.28185E+00    0.00000E+00
 1.30000E+00    0.00000E+00
 1.40000E+00    0.00000E+00
 1.41441E+00    0.00000E+00
 1.43613E+00    0.00000E+00
 1.45365E+00    0.00000E+00
 1.50000E+00    0.00000E+00
 1.50886E+00    0.00000E+00
 1.55241E+00    0.00000E+00
 1.60000E+00    0.00000E+00
 1.62203E+00    0.00000E+00
 1.62961E+00    0.00000E+00
 1.64050E+00    0.00000E+00
 1.64668E+00    0.00000E+00
 1.70000E+00    0.00000E+00
 1.70729E+00    0.00000E+00
 1.71693E+00    0.00000E+00
 1.72759E+00    0.00000E+00
 1.80000E+00    0.00000E+00
 1.90000E+00    0.00000E+00
 2.00000E+00    0.00000E+00
 2.25000E+00    0.00000E+00
 2.50000E+00    0.00000E+00
 2.75000E+00    0.00000E+00
 3.00000E+00    0.00000E+00
 3.50000E+00    0.00000E+00
 4.00000E+00    0.00000E+00
 4.50000E+00    0.00000E+00
 5.00000E+00    0.00000E+00
 5.50000E+00    1.24430E-33
 6.00000E+00    1.25310E-28
 6.50000E+00    7.53320E-25
 7.00000E+00    6.53030E-22
 7.50000E+00    1.41030E-19
 8.00000E+00    1.08190E-17
 8.50000E+00    3.75020E-16
 9.00000E+00    6.95250E-15
 9.50000E+00    7.79760E-14
 1.00000E+01    5.80270E-13
 1.05000E+01    3.08510E-12
 1.10000E+01    1.25530E-11
 1.15000E+01    4.29990E-11
 1.20000E+01    1.47440E-10
 1.25000E+01    6.11260E-10
 1.30000E+01    2.63280E-09
 1.35000E+01    1.25620E-08
 1.40000E+01    5.35470E-08
 1.45000E+01    1.98380E-07
 1.50000E+01    6.41910E-07
 1.55000E+01    1.83876E-06
 1.60000E+01    4.73279E-06
 1.65000E+01    1.10988E-05
 1.70000E+01    2.40109E-05
 1.75000E+01    4.84470E-05
 1.80000E+01    9.20355E-05
 1.85000E+01    1.65942E-04
 1.90000E+01    2.85864E-04
 1.95000E+01    4.73055E-04
 2.00000E+01    7.55253E-04
