# n + Br 79 : (n,xp)    
# jendl4.0   K.Shibata, A.Ichihara, S.Kunieda  EVAL-AUG09
# 
# # energies =    78
#   E(MeV)        xs(mb) 
 2.10172E-01    0.00000E+00
 2.19885E-01    0.00000E+00
 2.64680E-01    0.00000E+00
 3.00000E-01    0.00000E+00
 3.10427E-01    0.00000E+00
 3.86376E-01    0.00000E+00
 4.00000E-01    0.00000E+00
 4.02560E-01    0.00000E+00
 5.00000E-01    0.00000E+00
 5.29816E-01    0.00000E+00
 6.00000E-01    0.00000E+00
 6.13766E-01    0.00000E+00
 7.00000E-01    0.00000E+00
 7.71081E-01    0.00000E+00
 8.00000E-01    0.00000E+00
 8.03540E-01    8.01914E-05
 8.06994E-01    1.58417E-04
 8.42604E-01    9.64969E-04
 9.00000E-01    2.26500E-03
 9.17985E-01    2.84141E-03
 9.52014E-01    3.93206E-03
 9.66274E-01    4.38909E-03
 9.66902E-01    4.40921E-03
 1.00000E+00    5.47000E-03
 1.04560E+00    1.38750E-02
 1.05208E+00    1.50699E-02
 1.06646E+00    1.77210E-02
 1.08165E+00    2.05214E-02
 1.09350E+00    2.27058E-02
 1.12673E+00    2.88312E-02
 1.13837E+00    3.09764E-02
 1.14613E+00    3.24083E-02
 1.19174E+00    4.08154E-02
 1.19589E+00    4.15807E-02
 1.20470E+00    4.32049E-02
 1.23721E+00    4.91978E-02
 1.27033E+00    5.53028E-02
 1.27256E+00    5.57135E-02
 1.33059E+00    6.64113E-02
 1.34932E+00    6.98633E-02
 1.35004E+00    6.99958E-02
 1.39359E+00    7.80238E-02
 1.40817E+00    8.07122E-02
 1.48960E+00    9.57225E-02
 1.50000E+00    9.76400E-02
 1.51077E+00    1.08698E-01
 1.52079E+00    1.18996E-01
 1.53163E+00    1.30127E-01
 1.53203E+00    1.30543E-01
 1.54216E+00    1.40945E-01
 2.00000E+00    6.11200E-01
 2.50000E+00    2.30600E+00
 3.00000E+00    5.22200E+00
 3.50000E+00    8.74100E+00
 4.00000E+00    1.20300E+01
 4.50000E+00    1.41000E+01
 5.00000E+00    1.57900E+01
 5.50000E+00    1.61600E+01
 6.00000E+00    1.70600E+01
 6.50000E+00    1.73300E+01
 7.00000E+00    1.84900E+01
 7.50000E+00    1.96500E+01
 8.00000E+00    2.13500E+01
 8.50000E+00    2.32217E+01
 9.00000E+00    2.68950E+01
 9.50000E+00    3.61590E+01
 1.00000E+01    5.59400E+01
 1.10000E+01    1.34080E+02
 1.20000E+01    1.52380E+02
 1.30000E+01    1.35680E+02
 1.40000E+01    1.26430E+02
 1.45000E+01    1.24710E+02
 1.50000E+01    1.23690E+02
 1.60000E+01    1.25990E+02
 1.70000E+01    1.31800E+02
 1.80000E+01    1.38960E+02
 1.90000E+01    1.46770E+02
 2.00000E+01    1.54760E+02
