# n + In115 : (n,xd)    
# jendl.ad   kunieda                           EVAL-Mar14
# 
# # energies =    58
#   E(MeV)        xs(mb) 
 1.50000E-01    0.00000E+00
 2.00000E-01    0.00000E+00
 3.00000E-01    0.00000E+00
 3.39192E-01    0.00000E+00
 4.00000E-01    0.00000E+00
 5.00000E-01    0.00000E+00
 6.00000E-01    0.00000E+00
 6.02382E-01    0.00000E+00
 7.00000E-01    0.00000E+00
 8.00000E-01    0.00000E+00
 8.35854E-01    0.00000E+00
 8.71716E-01    0.00000E+00
 9.00000E-01    0.00000E+00
 9.41977E-01    0.00000E+00
 1.00000E+00    0.00000E+00
 1.20000E+00    0.00000E+00
 1.40000E+00    0.00000E+00
 1.60000E+00    0.00000E+00
 1.80000E+00    0.00000E+00
 2.00000E+00    0.00000E+00
 2.20000E+00    0.00000E+00
 2.40000E+00    0.00000E+00
 2.70000E+00    0.00000E+00
 3.00000E+00    0.00000E+00
 3.50000E+00    0.00000E+00
 4.00000E+00    0.00000E+00
 4.50000E+00    0.00000E+00
 5.00000E+00    1.57190E-14
 5.50000E+00    4.57574E-14
 6.00000E+00    9.55760E-14
 6.50000E+00    5.90290E-11
 7.00000E+00    3.87750E-09
 7.50000E+00    6.58410E-08
 8.00000E+00    5.16460E-07
 8.50000E+00    2.84702E-06
 9.00000E+00    2.06057E-05
 9.50000E+00    1.03520E-04
 1.00000E+01    1.01923E-03
 1.05000E+01    4.49221E-03
 1.10000E+01    1.68723E-02
 1.15000E+01    5.52117E-02
 1.20000E+01    1.15060E-01
 1.25000E+01    2.63378E-01
 1.30000E+01    4.89990E-01
 1.35000E+01    8.94802E-01
 1.40000E+01    1.46770E+00
 1.45000E+01    2.02352E+00
 1.50000E+01    2.69698E+00
 1.55000E+01    3.48896E+00
 1.60000E+01    4.39823E+00
 1.65000E+01    5.42199E+00
 1.70000E+01    6.19682E+00
 1.75000E+01    7.41247E+00
 1.80000E+01    8.73317E+00
 1.85000E+01    9.42832E+00
 1.90000E+01    1.04531E+01
 1.95000E+01    1.19875E+01
 2.00000E+01    1.23028E+01
