# n + In115 : (n,xp)    
# jendl.ad   kunieda                           EVAL-Mar14
# 
# # energies =    58
#   E(MeV)        xs(mb) 
 1.50000E-01    0.00000E+00
 2.00000E-01    0.00000E+00
 3.00000E-01    0.00000E+00
 3.39192E-01    0.00000E+00
 4.00000E-01    0.00000E+00
 5.00000E-01    0.00000E+00
 6.00000E-01    0.00000E+00
 6.02382E-01    0.00000E+00
 7.00000E-01    1.43338E-12
 8.00000E-01    6.15015E-12
 8.35854E-01    7.84130E-12
 8.71716E-01    4.18846E-11
 9.00000E-01    9.01050E-11
 9.41977E-01    1.61670E-10
 1.00000E+00    2.60592E-10
 1.20000E+00    6.01569E-10
 1.40000E+00    9.42546E-10
 1.60000E+00    1.28352E-09
 1.80000E+00    1.62450E-09
 2.00000E+00    3.19180E-09
 2.20000E+00    5.26690E-08
 2.40000E+00    4.94330E-07
 2.70000E+00    6.85884E-06
 3.00000E+00    5.11911E-05
 3.50000E+00    6.10614E-04
 4.00000E+00    3.52143E-03
 4.50000E+00    1.25295E-02
 5.00000E+00    3.15440E-02
 5.50000E+00    6.14721E-02
 6.00000E+00    9.32159E-02
 6.50000E+00    1.40307E-01
 7.00000E+00    1.84640E-01
 7.50000E+00    2.44154E-01
 8.00000E+00    3.34906E-01
 8.50000E+00    4.75820E-01
 9.00000E+00    7.18081E-01
 9.50000E+00    1.08927E+00
 1.00000E+01    1.61920E+00
 1.05000E+01    2.33703E+00
 1.10000E+01    3.25859E+00
 1.15000E+01    4.40733E+00
 1.20000E+01    5.76426E+00
 1.25000E+01    7.36406E+00
 1.30000E+01    9.15555E+00
 1.35000E+01    1.11966E+01
 1.40000E+01    1.34103E+01
 1.45000E+01    1.58244E+01
 1.50000E+01    1.84225E+01
 1.55000E+01    2.11592E+01
 1.60000E+01    2.40532E+01
 1.65000E+01    2.70916E+01
 1.70000E+01    3.02461E+01
 1.75000E+01    3.34951E+01
 1.80000E+01    3.68869E+01
 1.85000E+01    4.03772E+01
 1.90000E+01    4.39852E+01
 1.95000E+01    4.76676E+01
 2.00000E+01    5.14766E+01
