# n + Ag107 : (n,xa)    
# jendl4.0   N.Iwamoto,K.Shibata               EVAL-Dec09
# 
# # energies =    90
#   E(MeV)        xs(mb) 
 9.40036E-02    3.11613E-07
 1.00000E-01    3.12950E-07
 1.05000E-01    3.15142E-07
 1.10000E-01    3.17335E-07
 1.20000E-01    3.22941E-07
 1.26775E-01    3.27513E-07
 1.30000E-01    3.29940E-07
 1.40000E-01    3.38397E-07
 1.50000E-01    3.48131E-07
 1.60000E-01    3.59136E-07
 1.70000E-01    3.71426E-07
 1.80000E-01    3.84886E-07
 1.90000E-01    4.00960E-07
 2.00000E-01    4.17647E-07
 2.25000E-01    4.63128E-07
 2.50000E-01    5.17570E-07
 2.75000E-01    5.81570E-07
 3.00000E-01    6.60400E-07
 3.27875E-01    7.59600E-07
 4.00000E-01    8.95600E-07
 4.27142E-01    9.85450E-07
 5.00000E-01    1.23256E-06
 6.00000E-01    1.86914E-06
 7.00000E-01    3.00902E-06
 7.80606E-01    4.44098E-06
 7.94012E-01    4.82128E-06
 8.00000E-01    4.90325E-06
 9.00000E-01    7.65310E-06
 9.30760E-01    8.75758E-06
 9.58661E-01    9.80172E-06
 9.82483E-01    1.06955E-05
 1.00000E+00    1.16346E-05
 1.00035E+00    1.16534E-05
 1.07121E+00    1.51421E-05
 1.10000E+00    1.72716E-05
 1.15277E+00    2.11168E-05
 1.15278E+00    2.11176E-05
 1.15384E+00    2.11946E-05
 1.15772E+00    2.14651E-05
 1.20000E+00    2.53762E-05
 1.23353E+00    2.83764E-05
 1.23455E+00    2.84740E-05
 1.27077E+00    3.20209E-05
 1.30000E+00    3.60452E-05
 1.33831E+00    4.06547E-05
 1.40000E+00    5.10622E-05
 1.50000E+00    7.36649E-05
 1.60000E+00    1.04867E-04
 1.70000E+00    1.48232E-04
 1.80000E+00    2.07265E-04
 1.90000E+00    2.86691E-04
 2.00000E+00    4.82098E-04
 2.25000E+00    8.68716E-04
 2.50000E+00    1.65825E-03
 2.75000E+00    2.97460E-03
 3.00000E+00    4.88162E-03
 3.50000E+00    1.19675E-02
 4.00000E+00    2.60136E-02
 4.50000E+00    5.01871E-02
 5.00000E+00    8.75490E-02
 5.50000E+00    1.39961E-01
 6.00000E+00    2.07959E-01
 6.50000E+00    2.92789E-01
 7.00000E+00    3.98529E-01
 7.50000E+00    5.31877E-01
 8.00000E+00    7.01966E-01
 8.50000E+00    9.19045E-01
 9.00000E+00    1.19481E+00
 9.50000E+00    1.54082E+00
 1.00000E+01    1.96434E+00
 1.05000E+01    2.46401E+00
 1.10000E+01    3.03165E+00
 1.15000E+01    3.66610E+00
 1.20000E+01    4.36068E+00
 1.25000E+01    5.10790E+00
 1.30000E+01    5.90058E+00
 1.35000E+01    6.73418E+00
 1.40000E+01    7.60486E+00
 1.45000E+01    8.50239E+00
 1.50000E+01    9.43948E+00
 1.55000E+01    1.04086E+01
 1.60000E+01    1.13721E+01
 1.65000E+01    1.23858E+01
 1.70000E+01    1.34372E+01
 1.75000E+01    1.44626E+01
 1.80000E+01    1.55315E+01
 1.85000E+01    1.66846E+01
 1.90000E+01    1.78985E+01
 1.95000E+01    1.91644E+01
 2.00000E+01    2.06278E+01
