# n + Ag107 :  n        
# jendl4.0   N.Iwamoto,K.Shibata               EVAL-Dec09
# uncertainties: n
# # energies =    87
#   E(MeV)       xs(mb) 
 1.05000E-01    0.00000E+00
 1.10000E-01    2.47063E-03
 1.20000E-01    3.13542E-03
 1.26775E-01    3.37960E-03
 1.30000E-01    3.45692E-03
 1.40000E-01    3.60774E-03
 1.50000E-01    3.67233E-03
 1.60000E-01    3.68440E-03
 1.70000E-01    3.67128E-03
 1.80000E-01    3.64389E-03
 1.90000E-01    3.59602E-03
 2.00000E-01    3.85469E-03
 2.25000E-01    2.17938E-02
 2.50000E-01    2.55062E-02
 2.75000E-01    2.66286E-02
 3.00000E-01    2.83804E-02
 3.27875E-01    8.10734E-02
 4.00000E-01    8.45637E-02
 4.27142E-01    1.64308E-01
 5.00000E-01    1.81203E-01
 6.00000E-01    3.44137E-01
 7.00000E-01    6.06058E-01
 7.80606E-01    9.83545E-01
 7.94012E-01    9.97757E-01
 8.00000E-01    9.91136E-01
 9.00000E-01    1.48207E+00
 9.30760E-01    1.88059E+00
 9.58661E-01    2.03676E+00
 9.82483E-01    2.07053E+00
 1.00000E+00    2.06969E+00
 1.00035E+00    2.06965E+00
 1.07121E+00    2.68241E+00
 1.10000E+00    2.70907E+00
 1.15278E+00    3.38360E+00
 1.15384E+00    3.38778E+00
 1.15772E+00    3.40000E+00
 1.20000E+00    3.44566E+00
 1.23353E+00    3.95706E+00
 1.23455E+00    3.96759E+00
 1.27077E+00    4.17085E+00
 1.30000E+00    4.17300E+00
 1.33831E+00    4.75919E+00
 1.40000E+00    4.98044E+00
 1.50000E+00    3.71318E+01
 1.60000E+00    1.21790E+02
 1.70000E+00    2.40536E+02
 1.80000E+00    3.77027E+02
 1.90000E+00    5.20936E+02
 2.00000E+00    6.66641E+02
 2.25000E+00    1.00280E+03
 2.50000E+00    1.23503E+03
 2.75000E+00    1.41163E+03
 3.00000E+00    1.57595E+03
 3.50000E+00    1.76159E+03
 4.00000E+00    1.86457E+03
 4.50000E+00    1.92424E+03
 5.00000E+00    1.95840E+03
 5.50000E+00    1.97345E+03
 6.00000E+00    1.97215E+03
 6.50000E+00    1.95799E+03
 7.00000E+00    1.93604E+03
 7.50000E+00    1.91149E+03
 8.00000E+00    1.88854E+03
 8.50000E+00    1.86955E+03
 9.00000E+00    1.85533E+03
 9.50000E+00    1.84527E+03
 1.00000E+01    1.80548E+03
 1.05000E+01    1.56866E+03
 1.10000E+01    1.25825E+03
 1.15000E+01    9.90975E+02
 1.20000E+01    7.85904E+02
 1.25000E+01    6.34731E+02
 1.30000E+01    5.26820E+02
 1.35000E+01    4.49850E+02
 1.40000E+01    3.94728E+02
 1.45000E+01    3.53523E+02
 1.50000E+01    3.22241E+02
 1.55000E+01    2.97696E+02
 1.60000E+01    2.77305E+02
 1.65000E+01    2.59246E+02
 1.70000E+01    2.43422E+02
 1.75000E+01    2.30825E+02
 1.80000E+01    2.18254E+02
 1.85000E+01    2.07997E+02
 1.90000E+01    1.99109E+02
 1.95000E+01    1.90792E+02
 2.00000E+01    1.83442E+02
