# n + Nb 91 : (n,xp)    
# jendl.ad   K.Shibata (JAEA)                  EVAL-Jan14
# 
# # energies =    66
#   E(MeV)        xs(mb) 
 1.05761E-01    1.83280E-01
 2.00000E-01    2.10202E-01
 3.00000E-01    2.72946E-01
 4.00000E-01    3.47503E-01
 5.00000E-01    4.68852E-01
 6.00000E-01    5.92344E-01
 7.00000E-01    7.79556E-01
 8.00000E-01    1.00297E+00
 9.00000E-01    1.26083E+00
 1.00000E+00    1.56565E+00
 1.05154E+00    1.77110E+00
 1.20005E+00    1.95593E+00
 1.32728E+00    2.04804E+00
 1.50000E+00    2.51278E+00
 1.59852E+00    2.94902E+00
 1.63055E+00    3.05072E+00
 1.65517E+00    3.11785E+00
 1.81049E+00    3.40131E+00
 1.86539E+00    3.50151E+00
 1.90592E+00    3.57471E+00
 1.98489E+00    3.71035E+00
 2.00000E+00    3.73631E+00
 2.00626E+00    3.74706E+00
 2.05692E+00    3.83407E+00
 2.08791E+00    3.90900E+00
 2.14437E+00    4.04552E+00
 2.19408E+00    4.16571E+00
 2.30024E+00    4.47004E+00
 2.31621E+00    4.51753E+00
 2.35033E+00    4.62266E+00
 2.35588E+00    4.63842E+00
 2.37138E+00    4.67865E+00
 2.41653E+00    4.79583E+00
 2.44026E+00    4.85743E+00
 2.50000E+00    5.03052E+00
 2.55928E+00    5.24234E+00
 2.60817E+00    5.44922E+00
 2.64159E+00    5.59065E+00
 2.66117E+00    5.66871E+00
 2.68971E+00    5.77552E+00
 3.00000E+00    6.95313E+00
 3.50000E+00    9.03739E+00
 4.00000E+00    1.17092E+01
 4.50000E+00    1.43732E+01
 5.00000E+00    1.76156E+01
 5.50000E+00    2.15269E+01
 6.00000E+00    2.59019E+01
 6.50000E+00    3.05137E+01
 7.00000E+00    3.42446E+01
 7.50000E+00    3.97001E+01
 8.00000E+00    4.89434E+01
 8.50000E+00    6.55025E+01
 9.00000E+00    8.94692E+01
 9.50000E+00    1.18476E+02
 1.00000E+01    1.51242E+02
 1.10000E+01    2.42578E+02
 1.20000E+01    3.90872E+02
 1.30000E+01    4.83086E+02
 1.40000E+01    4.49714E+02
 1.45000E+01    4.32022E+02
 1.50000E+01    4.13960E+02
 1.60000E+01    4.03375E+02
 1.70000E+01    4.03614E+02
 1.80000E+01    4.01651E+02
 1.90000E+01    4.09714E+02
 2.00000E+01    4.06195E+02
