# n + Nb 91 : (n,xn)    
# jendl.ad   K.Shibata (JAEA)                  EVAL-Jan14
# 
# # energies =    66
#   E(MeV)        xs(mb) 
 1.05761E-01    0.00000E+00
 2.00000E-01    0.00000E+00
 3.00000E-01    0.00000E+00
 4.00000E-01    0.00000E+00
 5.00000E-01    0.00000E+00
 6.00000E-01    0.00000E+00
 7.00000E-01    0.00000E+00
 8.00000E-01    0.00000E+00
 9.00000E-01    0.00000E+00
 1.00000E+00    0.00000E+00
 1.05154E+00    0.00000E+00
 1.20005E+00    0.00000E+00
 1.32728E+00    0.00000E+00
 1.50000E+00    0.00000E+00
 1.59852E+00    0.00000E+00
 1.63055E+00    0.00000E+00
 1.65517E+00    0.00000E+00
 1.81049E+00    0.00000E+00
 1.86539E+00    0.00000E+00
 1.90592E+00    0.00000E+00
 1.98489E+00    0.00000E+00
 2.00000E+00    0.00000E+00
 2.00626E+00    0.00000E+00
 2.05692E+00    0.00000E+00
 2.08791E+00    0.00000E+00
 2.14437E+00    0.00000E+00
 2.19408E+00    0.00000E+00
 2.30024E+00    0.00000E+00
 2.31621E+00    0.00000E+00
 2.35033E+00    0.00000E+00
 2.35588E+00    0.00000E+00
 2.37138E+00    0.00000E+00
 2.41653E+00    0.00000E+00
 2.44026E+00    0.00000E+00
 2.50000E+00    0.00000E+00
 2.55928E+00    0.00000E+00
 2.60817E+00    0.00000E+00
 2.64159E+00    0.00000E+00
 2.66117E+00    0.00000E+00
 2.68971E+00    0.00000E+00
 3.00000E+00    0.00000E+00
 3.50000E+00    0.00000E+00
 4.00000E+00    0.00000E+00
 4.50000E+00    0.00000E+00
 5.00000E+00    0.00000E+00
 5.50000E+00    3.32295E-05
 6.00000E+00    9.07878E-05
 6.50000E+00    1.48346E-04
 7.00000E+00    3.61068E-02
 7.50000E+00    8.48704E-01
 8.00000E+00    5.53966E+00
 8.50000E+00    1.77394E+01
 9.00000E+00    3.75866E+01
 9.50000E+00    6.28381E+01
 1.00000E+01    9.22368E+01
 1.10000E+01    1.78808E+02
 1.20000E+01    3.26217E+02
 1.30000E+01    7.22912E+02
 1.40000E+01    1.26048E+03
 1.45000E+01    1.46887E+03
 1.50000E+01    1.64272E+03
 1.60000E+01    1.87016E+03
 1.70000E+01    2.01128E+03
 1.80000E+01    2.11190E+03
 1.90000E+01    2.18076E+03
 2.00000E+01    2.23752E+03
