# n + Ce  0 : (n,xa)
# jendl4.0   S.Kunieda, A.Ichihara, K.Shibata+ EVAL-FEB10
#
# # energies =    62
#   E(MeV)          xs(mb) 
 6.45844E-01    0.00000E+00
 6.50000E-01    0.00000E+00
 7.00000E-01    0.00000E+00
 7.50000E-01    0.00000E+00
 8.00000E-01    0.00000E+00
 8.50000E-01    0.00000E+00
 9.00000E-01    0.00000E+00
 9.50000E-01    0.00000E+00
 1.00000E+00    0.00000E+00
 1.20000E+00    0.00000E+00
 1.22805E+00    0.00000E+00
 1.40000E+00    0.00000E+00
 1.54702E+00    0.00000E+00
 1.60000E+00    0.00000E+00
 1.66435E+00    0.00000E+00
 1.75438E+00    0.00000E+00
 1.80000E+00    0.00000E+00
 2.00000E+00    0.00000E+00
 2.01855E+00    0.00000E+00
 2.02852E+00    0.00000E+00
 2.04503E+00    0.00000E+00
 2.05802E+00    0.00000E+00
 2.12903E+00    0.00000E+00
 2.14010E+00    0.00000E+00
 2.19711E+00    0.00000E+00
 2.20000E+00    0.00000E+00
 2.20275E+00    0.00000E+00
 2.29520E+00    0.00000E+00
 2.38131E+00    0.00000E+00
 2.39138E+00    0.00000E+00
 2.40000E+00    0.00000E+00
 2.60000E+00    0.00000E+00
 2.80000E+00    0.00000E+00
 3.00000E+00    5.11697E-04
 3.25000E+00    6.98113E-04
 3.50000E+00    9.07079E-04
 3.75000E+00    3.79296E-03
 4.00000E+00    5.81176E-03
 4.25000E+00    7.38619E-03
 4.50000E+00    9.30600E-03
 4.75000E+00    1.29456E-02
 5.00000E+00    1.59075E-02
 5.50000E+00    2.23679E-02
 6.00000E+00    3.63907E-02
 6.50000E+00    4.56056E-02
 7.00000E+00    5.45891E-02
 7.50000E+00    6.97798E-02
 8.00000E+00    9.67110E-02
 8.50000E+00    1.29209E-01
 9.00000E+00    1.84460E-01
 9.50000E+00    2.50491E-01
 1.00000E+01    3.61675E-01
 1.10000E+01    6.81410E-01
 1.20000E+01    1.29974E+00
 1.30000E+01    2.37184E+00
 1.40000E+01    4.02349E+00
 1.50000E+01    6.27658E+00
 1.60000E+01    9.06159E+00
 1.70000E+01    1.22436E+01
 1.80000E+01    1.56860E+01
 1.90000E+01    1.92451E+01
 2.00000E+01    2.28278E+01
