# n + Sm151 : (n,n'15)  
# jendl4.0   N.Iwamoto,A.Zukeran,K.Shibata     EVAL-Nov09
# uncertainties: n
# # energies =    81
#   E(MeV)       xs(mb) 
 3.04643E-01    0.00000E+00
 3.08840E-01    5.03625E+01
 3.15948E-01    7.38265E+01
 3.17387E-01    7.70687E+01
 3.26109E-01    9.21923E+01
 3.47214E-01    1.12681E+02
 3.58027E-01    1.19086E+02
 3.60393E-01    1.20334E+02
 3.85761E-01    1.25855E+02
 3.98225E-01    1.28820E+02
 4.00000E-01    1.28978E+02
 4.08210E-01    1.30397E+02
 4.18418E-01    1.31777E+02
 4.21901E-01    1.29950E+02
 4.26008E-01    1.29622E+02
 4.40424E-01    1.29880E+02
 4.48176E-01    1.29721E+02
 4.48659E-01    1.29733E+02
 4.51578E-01    1.29478E+02
 4.73554E-01    1.29213E+02
 4.93617E-01    1.27728E+02
 5.00000E-01    1.25492E+02
 5.05627E-01    1.24801E+02
 5.05687E-01    1.24786E+02
 5.08677E-01    1.24460E+02
 5.24633E-01    1.22880E+02
 5.33744E-01    1.22269E+02
 5.35364E-01    1.21979E+02
 6.00000E-01    1.17923E+02
 7.00000E-01    1.09755E+02
 8.00000E-01    9.57331E+01
 9.00000E-01    8.40169E+01
 1.00000E+00    7.21893E+01
 1.10000E+00    6.11762E+01
 1.20000E+00    5.21040E+01
 1.30000E+00    4.45058E+01
 1.40000E+00    3.74158E+01
 1.50000E+00    3.13864E+01
 1.60000E+00    2.63098E+01
 1.70000E+00    2.20512E+01
 1.80000E+00    1.84988E+01
 1.90000E+00    1.55393E+01
 2.00000E+00    1.30741E+01
 2.25000E+00    8.44974E+00
 2.50000E+00    5.64861E+00
 2.75000E+00    3.77893E+00
 3.00000E+00    2.49772E+00
 3.50000E+00    1.12448E+00
 4.00000E+00    5.09531E-01
 4.50000E+00    2.35685E-01
 5.00000E+00    1.15443E-01
 5.50000E+00    6.29835E-02
 6.00000E+00    3.98376E-02
 6.50000E+00    2.92120E-02
 7.00000E+00    2.39300E-02
 7.50000E+00    2.09204E-02
 8.00000E+00    1.88793E-02
 8.50000E+00    1.72867E-02
 9.00000E+00    1.59453E-02
 9.50000E+00    1.47831E-02
 1.00000E+01    1.37657E-02
 1.05000E+01    1.28758E-02
 1.10000E+01    1.20910E-02
 1.15000E+01    1.13938E-02
 1.20000E+01    1.07670E-02
 1.25000E+01    1.01962E-02
 1.30000E+01    9.67112E-03
 1.35000E+01    9.18469E-03
 1.40000E+01    8.73211E-03
 1.45000E+01    8.30778E-03
 1.50000E+01    7.90580E-03
 1.55000E+01    7.53650E-03
 1.60000E+01    7.18895E-03
 1.65000E+01    6.86205E-03
 1.70000E+01    6.55446E-03
 1.75000E+01    6.26513E-03
 1.80000E+01    5.99335E-03
 1.85000E+01    5.73824E-03
 1.90000E+01    5.49916E-03
 1.95000E+01    5.27542E-03
 2.00000E+01    5.06639E-03
