# n + Rb 85 : (n,non)   
# jendl4.0   K.Shibata, A.Ichihara, S.Kunieda  EVAL-AUG09
# uncertainties: n
# # energies =    92
#   E(MeV)       xs(mb) 
 8.46800E-03    0.00000E+00
 8.46800E-03    6.35812E+02
 9.00000E-03    6.14000E+02
 1.00000E-02    5.79400E+02
 2.00000E-02    3.88800E+02
 3.00000E-02    3.01100E+02
 4.00000E-02    2.49000E+02
 5.00000E-02    2.14400E+02
 6.00000E-02    1.89900E+02
 7.00000E-02    1.71500E+02
 8.00000E-02    1.57300E+02
 9.00000E-02    1.46000E+02
 1.00000E-01    1.36800E+02
 1.52957E-01    1.09257E+02
 2.00000E-01    2.66590E+02
 2.84324E-01    4.11087E+02
 3.00000E-01    4.47970E+02
 4.00000E-01    5.84060E+02
 5.00000E-01    6.57630E+02
 5.20114E-01    6.60905E+02
 6.00000E-01    8.12510E+02
 7.00000E-01    8.82720E+02
 7.40515E-01    8.90305E+02
 8.00000E-01    9.48460E+02
 8.79303E-01    9.84939E+02
 8.96343E-01    1.01956E+03
 9.00000E-01    1.02848E+03
 9.30625E-01    1.04484E+03
 9.30635E-01    1.04485E+03
 9.62246E-01    1.10752E+03
 1.00000E+00    1.22034E+03
 1.18896E+00    1.26216E+03
 1.18949E+00    1.26242E+03
 1.30873E+00    1.36171E+03
 1.31133E+00    1.36420E+03
 1.40065E+00    1.46698E+03
 1.46223E+00    1.56110E+03
 1.46642E+00    1.56905E+03
 1.50000E+00    1.64420E+03
 1.51406E+00    1.64343E+03
 1.65084E+00    1.64173E+03
 1.68845E+00    1.64757E+03
 1.76856E+00    1.66298E+03
 1.80816E+00    1.67608E+03
 1.81357E+00    1.67858E+03
 1.82361E+00    1.68365E+03
 1.87463E+00    1.71718E+03
 1.91346E+00    1.74597E+03
 1.95262E+00    1.78037E+03
 1.97319E+00    1.80148E+03
 2.00000E+00    1.83002E+03
 2.02366E+00    1.82981E+03
 2.05220E+00    1.83029E+03
 2.06373E+00    1.83115E+03
 2.07739E+00    1.83253E+03
 2.11240E+00    1.83911E+03
 2.12252E+00    1.84162E+03
 2.50000E+00    2.02806E+03
 3.00000E+00    2.08910E+03
 3.50000E+00    2.07987E+03
 4.00000E+00    2.03131E+03
 4.50000E+00    1.96530E+03
 4.85777E+00    1.92139E+03
 5.00000E+00    1.90394E+03
 5.50000E+00    1.85665E+03
 6.00000E+00    1.82454E+03
 6.50000E+00    1.80552E+03
 6.69602E+00    1.80144E+03
 7.00000E+00    1.79512E+03
 7.10877E+00    1.79387E+03
 7.50000E+00    1.78937E+03
 8.00000E+00    1.78545E+03
 8.50000E+00    1.78145E+03
 9.00000E+00    1.77712E+03
 9.17178E+00    1.77544E+03
 9.50000E+00    1.77221E+03
 1.00000E+01    1.76707E+03
 1.01373E+01    1.76373E+03
 1.06132E+01    1.75212E+03
 1.10000E+01    1.75706E+03
 1.20000E+01    1.74677E+03
 1.30000E+01    1.73456E+03
 1.40000E+01    1.71990E+03
 1.45000E+01    1.71163E+03
 1.50000E+01    1.70301E+03
 1.55034E+01    1.69467E+03
 1.60000E+01    1.68644E+03
 1.70000E+01    1.67136E+03
 1.80000E+01    1.65870E+03
 1.90000E+01    1.65015E+03
 1.94636E+01    1.64605E+03
 2.00000E+01    1.64173E+03
