# n + Rb 85 : (n,xn)    
# jendl4.0   K.Shibata, A.Ichihara, S.Kunieda  EVAL-AUG09
# 
# # energies =    71
#   E(MeV)        xs(mb) 
 1.52957E-01    0.00000E+00
 2.00000E-01    1.81800E+02
 2.84324E-01    3.41256E+02
 3.00000E-01    3.80920E+02
 4.00000E-01    5.25110E+02
 5.00000E-01    6.02500E+02
 5.20114E-01    6.08715E+02
 6.00000E-01    7.72000E+02
 7.00000E-01    8.47400E+02
 7.40515E-01    8.56192E+02
 8.00000E-01    9.16120E+02
 8.79303E-01    9.54724E+02
 8.96343E-01    9.89801E+02
 9.00000E-01    9.98820E+02
 9.30625E-01    1.01650E+03
 9.30635E-01    1.01651E+03
 9.62246E-01    1.08054E+03
 1.00000E+00    1.19499E+03
 1.18896E+00    1.24048E+03
 1.18949E+00    1.24076E+03
 1.30873E+00    1.34236E+03
 1.31133E+00    1.34490E+03
 1.40065E+00    1.44942E+03
 1.46223E+00    1.54474E+03
 1.46642E+00    1.55277E+03
 1.50000E+00    1.62857E+03
 1.51406E+00    1.62787E+03
 1.65084E+00    1.62689E+03
 1.68845E+00    1.63293E+03
 1.76856E+00    1.64876E+03
 1.80816E+00    1.66207E+03
 1.81357E+00    1.66460E+03
 1.82361E+00    1.66972E+03
 1.87463E+00    1.70352E+03
 1.91346E+00    1.73252E+03
 1.95262E+00    1.76712E+03
 1.97319E+00    1.78834E+03
 2.00000E+00    1.81702E+03
 2.02366E+00    1.81684E+03
 2.05220E+00    1.81733E+03
 2.06373E+00    1.81821E+03
 2.07739E+00    1.81960E+03
 2.11240E+00    1.82622E+03
 2.12252E+00    1.82873E+03
 2.50000E+00    2.01552E+03
 3.00000E+00    2.07900E+03
 3.50000E+00    2.07147E+03
 4.00000E+00    2.02448E+03
 4.50000E+00    1.95920E+03
 5.00000E+00    1.89820E+03
 5.50000E+00    1.85100E+03
 6.00000E+00    1.81889E+03
 6.50000E+00    1.79966E+03
 7.00000E+00    1.78897E+03
 7.50000E+00    1.78265E+03
 8.00000E+00    1.77793E+03
 8.50000E+00    1.77280E+03
 9.00000E+00    1.76682E+03
 9.50000E+00    1.76009E+03
 1.00000E+01    1.75245E+03
 1.10000E+01    1.75121E+03
 1.20000E+01    2.09656E+03
 1.30000E+01    2.45992E+03
 1.40000E+01    2.68325E+03
 1.45000E+01    2.74563E+03
 1.50000E+01    2.79571E+03
 1.60000E+01    2.83963E+03
 1.70000E+01    2.84938E+03
 1.80000E+01    2.84486E+03
 1.90000E+01    2.84067E+03
 2.00000E+01    2.82956E+03
