# n + Rb 85 : (n,xa)    
# jendl4.0   K.Shibata, A.Ichihara, S.Kunieda  EVAL-AUG09
# 
# # energies =    71
#   E(MeV)        xs(mb) 
 1.52957E-01    0.00000E+00
 2.00000E-01    0.00000E+00
 2.84324E-01    0.00000E+00
 3.00000E-01    0.00000E+00
 4.00000E-01    0.00000E+00
 5.00000E-01    0.00000E+00
 5.20114E-01    0.00000E+00
 6.00000E-01    0.00000E+00
 7.00000E-01    0.00000E+00
 7.40515E-01    0.00000E+00
 8.00000E-01    0.00000E+00
 8.79303E-01    0.00000E+00
 8.96343E-01    0.00000E+00
 9.00000E-01    0.00000E+00
 9.30625E-01    0.00000E+00
 9.30635E-01    0.00000E+00
 9.62246E-01    0.00000E+00
 1.00000E+00    0.00000E+00
 1.18896E+00    0.00000E+00
 1.18949E+00    0.00000E+00
 1.30873E+00    0.00000E+00
 1.31133E+00    0.00000E+00
 1.40065E+00    0.00000E+00
 1.46223E+00    0.00000E+00
 1.46642E+00    0.00000E+00
 1.50000E+00    0.00000E+00
 1.51406E+00    0.00000E+00
 1.65084E+00    0.00000E+00
 1.68845E+00    0.00000E+00
 1.76856E+00    0.00000E+00
 1.80816E+00    0.00000E+00
 1.81357E+00    0.00000E+00
 1.82361E+00    0.00000E+00
 1.87463E+00    0.00000E+00
 1.91346E+00    0.00000E+00
 1.95262E+00    0.00000E+00
 1.97319E+00    0.00000E+00
 2.00000E+00    0.00000E+00
 2.02366E+00    0.00000E+00
 2.05220E+00    0.00000E+00
 2.06373E+00    0.00000E+00
 2.07739E+00    0.00000E+00
 2.11240E+00    0.00000E+00
 2.12252E+00    0.00000E+00
 2.50000E+00    0.00000E+00
 3.00000E+00    0.00000E+00
 3.50000E+00    0.00000E+00
 4.00000E+00    0.00000E+00
 4.50000E+00    0.00000E+00
 5.00000E+00    0.00000E+00
 5.50000E+00    8.08700E-04
 6.00000E+00    3.65900E-03
 6.50000E+00    1.52500E-02
 7.00000E+00    4.24100E-02
 7.50000E+00    7.57200E-02
 8.00000E+00    1.42000E-01
 8.50000E+00    2.40300E-01
 9.00000E+00    3.92300E-01
 9.50000E+00    5.79700E-01
 1.00000E+01    8.00700E-01
 1.10000E+01    1.46100E+00
 1.20000E+01    2.40000E+00
 1.30000E+01    3.62522E+00
 1.40000E+01    5.09416E+00
 1.45000E+01    5.86142E+00
 1.50000E+01    6.74466E+00
 1.60000E+01    8.50000E+00
 1.70000E+01    1.02870E+01
 1.80000E+01    1.20400E+01
 1.90000E+01    1.36800E+01
 2.00000E+01    1.52380E+01
