# n + Yb170 : (n,xp)    
# jendl.ad   kunieda                           EVAL-Mar14
# 
# # energies =    76
#   E(MeV)        xs(mb) 
 8.47551E-02    0.00000E+00
 9.00000E-02    0.00000E+00
 1.00000E-01    0.00000E+00
 1.50000E-01    0.00000E+00
 2.00000E-01    2.13284E-18
 2.79087E-01    2.21936E-17
 3.00000E-01    2.84050E-17
 4.00000E-01    7.49333E-17
 5.00000E-01    2.31648E-16
 5.76814E-01    4.59342E-16
 6.00000E-01    5.34112E-16
 7.00000E-01    1.29085E-15
 8.00000E-01    2.08610E-15
 9.00000E-01    2.88135E-15
 9.69249E-01    3.43205E-15
 1.00000E+00    3.67660E-15
 1.07570E+00    4.27860E-15
 1.14533E+00    4.83234E-15
 1.15252E+00    4.88951E-15
 1.20000E+00    5.26710E-15
 1.23263E+00    5.81280E-15
 1.23617E+00    5.90020E-15
 1.26596E+00    6.98950E-15
 1.30118E+00    9.80940E-15
 1.31414E+00    1.16280E-14
 1.33769E+00    1.64530E-14
 1.35323E+00    2.16836E-14
 1.35324E+00    2.16870E-14
 1.37263E+00    3.16450E-14
 1.40000E+00    5.22090E-14
 1.40535E+00    5.84300E-14
 1.40630E+00    5.88710E-14
 1.41673E+00    7.19910E-14
 1.43371E+00    1.02910E-13
 1.44629E+00    1.32240E-13
 1.60000E+00    2.78190E-12
 1.80000E+00    7.11160E-11
 2.00000E+00    1.04000E-09
 2.20000E+00    9.85360E-09
 2.40000E+00    6.60950E-08
 2.70000E+00    6.93900E-07
 3.00000E+00    4.52318E-06
 3.50000E+00    4.95375E-05
 4.00000E+00    2.81414E-04
 4.50000E+00    1.02451E-03
 5.00000E+00    2.75398E-03
 5.50000E+00    6.27687E-03
 6.00000E+00    1.18245E-02
 6.50000E+00    2.11128E-02
 7.00000E+00    3.70504E-02
 7.50000E+00    6.40883E-02
 8.00000E+00    1.13485E-01
 8.50000E+00    1.98740E-01
 9.00000E+00    3.36603E-01
 9.50000E+00    5.56817E-01
 1.00000E+01    8.81646E-01
 1.05000E+01    1.34945E+00
 1.10000E+01    1.98929E+00
 1.15000E+01    2.81912E+00
 1.20000E+01    3.85381E+00
 1.25000E+01    5.12295E+00
 1.30000E+01    6.60543E+00
 1.35000E+01    8.29577E+00
 1.40000E+01    1.01782E+01
 1.45000E+01    1.22430E+01
 1.50000E+01    1.45036E+01
 1.55000E+01    1.69317E+01
 1.60000E+01    1.95119E+01
 1.65000E+01    2.22513E+01
 1.70000E+01    2.51377E+01
 1.75000E+01    2.81712E+01
 1.80000E+01    3.13607E+01
 1.85000E+01    3.46835E+01
 1.90000E+01    3.81749E+01
 1.95000E+01    4.18006E+01
 2.00000E+01    4.55434E+01
