# n + Yb170 : (n,xn)    
# jendl.ad   kunieda                           EVAL-Mar14
# 
# # energies =    76
#   E(MeV)        xs(mb) 
 8.47551E-02    0.00000E+00
 9.00000E-02    2.75920E+02
 1.00000E-01    3.56223E+02
 1.50000E-01    6.94297E+02
 2.00000E-01    1.03238E+03
 2.79087E-01    1.47824E+03
 3.00000E-01    1.57781E+03
 4.00000E-01    1.96232E+03
 5.00000E-01    2.21478E+03
 5.76814E-01    2.32557E+03
 6.00000E-01    2.34606E+03
 7.00000E-01    2.37582E+03
 8.00000E-01    2.33433E+03
 9.00000E-01    2.25197E+03
 9.69249E-01    2.18364E+03
 1.00000E+00    2.15232E+03
 1.07570E+00    2.07499E+03
 1.14533E+00    2.06318E+03
 1.15252E+00    2.11728E+03
 1.20000E+00    2.18863E+03
 1.23263E+00    2.17678E+03
 1.23617E+00    2.18918E+03
 1.26596E+00    2.21385E+03
 1.30118E+00    2.21450E+03
 1.31414E+00    2.21252E+03
 1.33769E+00    2.24045E+03
 1.35323E+00    2.24118E+03
 1.35324E+00    2.24118E+03
 1.37263E+00    2.23983E+03
 1.40000E+00    2.28270E+03
 1.40535E+00    2.28316E+03
 1.40630E+00    2.29043E+03
 1.41673E+00    2.30396E+03
 1.43371E+00    2.30765E+03
 1.44629E+00    2.31695E+03
 1.60000E+00    2.32998E+03
 1.80000E+00    2.35218E+03
 2.00000E+00    2.35146E+03
 2.20000E+00    2.34491E+03
 2.40000E+00    2.33506E+03
 2.70000E+00    2.31427E+03
 3.00000E+00    2.28968E+03
 3.50000E+00    2.25104E+03
 4.00000E+00    2.23287E+03
 4.50000E+00    2.24661E+03
 5.00000E+00    2.29268E+03
 5.50000E+00    2.35794E+03
 6.00000E+00    2.41981E+03
 6.50000E+00    2.46060E+03
 7.00000E+00    2.47527E+03
 7.50000E+00    2.46912E+03
 8.00000E+00    2.45111E+03
 8.50000E+00    2.42906E+03
 9.00000E+00    2.65465E+03
 9.50000E+00    3.23090E+03
 1.00000E+01    3.75002E+03
 1.05000E+01    4.03964E+03
 1.10000E+01    4.21601E+03
 1.15000E+01    4.31022E+03
 1.20000E+01    4.39324E+03
 1.25000E+01    4.43146E+03
 1.30000E+01    4.46468E+03
 1.35000E+01    4.47487E+03
 1.40000E+01    4.47512E+03
 1.45000E+01    4.46837E+03
 1.50000E+01    4.45652E+03
 1.55000E+01    4.44726E+03
 1.60000E+01    4.46491E+03
 1.65000E+01    4.43379E+03
 1.70000E+01    4.51457E+03
 1.75000E+01    4.64458E+03
 1.80000E+01    4.80857E+03
 1.85000E+01    4.95959E+03
 1.90000E+01    5.11143E+03
 1.95000E+01    5.32346E+03
 2.00000E+01    5.45725E+03
