# n + W 186 : (n,n')    
# jendl4.0   N.Iwamoto                         EVAL-Feb10
# uncertainties: n
# # energies =    84
#   E(MeV)       xs(mb) 
 1.05000E-01    0.00000E+00
 1.10000E-01    2.53600E-03
 1.20000E-01    3.56587E-03
 1.23295E-01    3.80606E-03
 1.30000E-01    1.79331E+02
 1.40000E-01    2.41444E+02
 1.50000E-01    2.95966E+02
 1.60000E-01    3.46407E+02
 1.70000E-01    3.91780E+02
 1.80000E-01    4.34918E+02
 1.90000E-01    4.76545E+02
 2.00000E-01    5.16571E+02
 2.25000E-01    6.13678E+02
 2.50000E-01    7.05585E+02
 2.75000E-01    7.89112E+02
 3.00000E-01    8.66298E+02
 3.98698E-01    1.14053E+03
 4.00000E-01    1.14370E+03
 5.00000E-01    1.35516E+03
 6.00000E-01    1.53066E+03
 7.00000E-01    1.67040E+03
 7.41963E-01    1.72109E+03
 8.00000E-01    1.86867E+03
 8.13640E-01    1.88894E+03
 8.66955E-01    1.96107E+03
 8.88386E-01    2.00908E+03
 9.00000E-01    2.06131E+03
 9.57904E-01    2.16565E+03
 1.00000E+00    2.26021E+03
 1.01219E+00    2.27720E+03
 1.02048E+00    2.28842E+03
 1.03582E+00    2.32845E+03
 1.05107E+00    2.37020E+03
 1.10000E+00    2.45153E+03
 1.15624E+00    2.51906E+03
 1.17798E+00    2.55351E+03
 1.17799E+00    2.55352E+03
 1.20000E+00    2.57835E+03
 1.30000E+00    2.66990E+03
 1.40000E+00    2.74329E+03
 1.50000E+00    2.79913E+03
 1.60000E+00    2.84398E+03
 1.70000E+00    2.87996E+03
 1.80000E+00    2.90895E+03
 1.90000E+00    2.93279E+03
 2.00000E+00    2.95195E+03
 2.25000E+00    2.97861E+03
 2.50000E+00    2.99099E+03
 2.75000E+00    2.98505E+03
 3.00000E+00    2.97294E+03
 3.50000E+00    2.93673E+03
 4.00000E+00    2.90865E+03
 4.50000E+00    2.89106E+03
 5.00000E+00    2.87641E+03
 5.50000E+00    2.85304E+03
 6.00000E+00    2.82241E+03
 6.50000E+00    2.78496E+03
 7.00000E+00    2.74729E+03
 7.50000E+00    2.64395E+03
 8.00000E+00    2.06770E+03
 8.50000E+00    1.47976E+03
 9.00000E+00    1.08911E+03
 9.50000E+00    8.53503E+02
 1.00000E+01    7.10706E+02
 1.05000E+01    6.20773E+02
 1.10000E+01    5.60619E+02
 1.15000E+01    5.17381E+02
 1.20000E+01    4.84072E+02
 1.25000E+01    4.57738E+02
 1.30000E+01    4.34829E+02
 1.35000E+01    4.15324E+02
 1.40000E+01    3.98542E+02
 1.45000E+01    3.83946E+02
 1.50000E+01    3.71068E+02
 1.55000E+01    3.59516E+02
 1.60000E+01    3.48951E+02
 1.65000E+01    3.38985E+02
 1.70000E+01    3.29506E+02
 1.75000E+01    3.20389E+02
 1.80000E+01    3.11568E+02
 1.85000E+01    3.03041E+02
 1.90000E+01    2.94856E+02
 1.95000E+01    2.87093E+02
 2.00000E+01    2.79876E+02
