# n + Lu173 : (n,xp)    
# jendl.ad   N.Iwamoto                         EVAL-Apr14
# 
# # energies =    97
#   E(MeV)        xs(mb) 
 1.05000E-01    6.89085E-10
 1.10000E-01    7.28560E-10
 1.17864E-01    7.99390E-10
 1.20000E-01    8.03270E-10
 1.24393E-01    8.36590E-10
 1.29092E-01    8.45840E-10
 1.30000E-01    8.52035E-10
 1.40000E-01    9.20260E-10
 1.50000E-01    1.00420E-09
 1.60000E-01    1.09770E-09
 1.70000E-01    1.20740E-09
 1.80000E-01    1.33220E-09
 1.90000E-01    1.47460E-09
 1.99628E-01    1.63040E-09
 2.00000E-01    1.63050E-09
 2.25000E-01    2.06200E-09
 2.50000E-01    2.66040E-09
 2.60068E-01    2.95697E-09
 2.64842E-01    3.09760E-09
 2.75000E-01    3.40140E-09
 3.00000E-01    4.37360E-09
 3.59078E-01    8.06010E-09
 3.60792E-01    8.12460E-09
 4.00000E-01    1.18180E-08
 4.26091E-01    1.53640E-08
 4.27798E-01    1.56296E-08
 4.30597E-01    1.60650E-08
 4.37449E-01    1.69830E-08
 4.51599E-01    1.92130E-08
 4.53731E-01    1.95490E-08
 5.00000E-01    2.81010E-08
 5.55313E-01    4.55780E-08
 5.74129E-01    5.32178E-08
 5.79681E-01    5.54720E-08
 5.83463E-01    5.67680E-08
 6.00000E-01    6.44170E-08
 6.10228E-01    6.99310E-08
 6.10229E-01    6.99316E-08
 6.14966E-01    7.26980E-08
 6.58176E-01    1.04190E-07
 6.58177E-01    1.04191E-07
 7.00000E-01    1.47887E-07
 7.19472E-01    1.74235E-07
 7.25748E-01    1.83390E-07
 7.38925E-01    2.04469E-07
 7.38995E-01    2.04586E-07
 8.00000E-01    3.31880E-07
 9.00000E-01    7.02112E-07
 1.00000E+00    1.37615E-06
 1.10000E+00    2.56888E-06
 1.20000E+00    4.59624E-06
 1.30000E+00    7.93514E-06
 1.40000E+00    1.32480E-05
 1.50000E+00    2.14304E-05
 1.60000E+00    3.37425E-05
 1.70000E+00    5.18142E-05
 1.80000E+00    7.75800E-05
 1.90000E+00    1.13610E-04
 2.00000E+00    1.62931E-04
 2.25000E+00    3.69091E-04
 2.50000E+00    7.60457E-04
 2.75000E+00    1.47916E-03
 3.00000E+00    2.47955E-03
 3.50000E+00    6.23095E-03
 4.00000E+00    1.27543E-02
 4.50000E+00    2.23041E-02
 5.00000E+00    3.45792E-02
 5.50000E+00    4.94752E-02
 6.00000E+00    6.78216E-02
 6.50000E+00    9.35184E-02
 7.00000E+00    1.35683E-01
 7.50000E+00    2.09512E-01
 8.00000E+00    3.36407E-01
 8.50000E+00    5.41621E-01
 9.00000E+00    8.53625E-01
 9.50000E+00    1.29973E+00
 1.00000E+01    1.90136E+00
 1.05000E+01    2.68094E+00
 1.10000E+01    3.64887E+00
 1.15000E+01    4.81404E+00
 1.20000E+01    6.18138E+00
 1.25000E+01    7.75287E+00
 1.30000E+01    9.52817E+00
 1.35000E+01    1.15056E+01
 1.40000E+01    1.36816E+01
 1.45000E+01    1.60517E+01
 1.50000E+01    1.86100E+01
 1.55000E+01    2.13493E+01
 1.60000E+01    2.42619E+01
 1.65000E+01    2.73391E+01
 1.70000E+01    3.05714E+01
 1.75000E+01    3.39483E+01
 1.80000E+01    3.74593E+01
 1.85000E+01    4.10946E+01
 1.90000E+01    4.48379E+01
 1.95000E+01    4.86796E+01
 2.00000E+01    5.26087E+01
