# n + Lu173 : (n,xn)    
# jendl.ad   N.Iwamoto                         EVAL-Apr14
# 
# # energies =    97
#   E(MeV)        xs(mb) 
 1.05000E-01    0.00000E+00
 1.10000E-01    1.56090E-02
 1.17864E-01    1.96254E-02
 1.20000E-01    8.02966E+01
 1.24393E-01    1.33377E+02
 1.29092E-01    2.87565E+02
 1.30000E-01    3.03411E+02
 1.40000E-01    4.43033E+02
 1.50000E-01    5.53824E+02
 1.60000E-01    6.61820E+02
 1.70000E-01    7.43867E+02
 1.80000E-01    8.16354E+02
 1.90000E-01    8.77802E+02
 1.99628E-01    9.29477E+02
 2.00000E-01    9.59114E+02
 2.25000E-01    1.21243E+03
 2.50000E-01    1.34478E+03
 2.60068E-01    1.38688E+03
 2.64842E-01    1.42181E+03
 2.75000E-01    1.48773E+03
 3.00000E-01    1.59178E+03
 3.59078E-01    1.75283E+03
 3.60792E-01    1.76534E+03
 4.00000E-01    1.88198E+03
 4.26091E-01    1.93552E+03
 4.27798E-01    1.94069E+03
 4.30597E-01    1.94711E+03
 4.37449E-01    1.98340E+03
 4.51599E-01    2.02938E+03
 4.53731E-01    2.04449E+03
 5.00000E-01    2.22584E+03
 5.55313E-01    2.33260E+03
 5.74129E-01    2.36566E+03
 5.79681E-01    2.38045E+03
 5.83463E-01    2.39394E+03
 6.00000E-01    2.43419E+03
 6.10228E-01    2.45364E+03
 6.10229E-01    2.45364E+03
 6.14966E-01    2.46145E+03
 6.58176E-01    2.52374E+03
 6.58177E-01    2.52374E+03
 7.00000E-01    2.57420E+03
 7.19472E-01    2.59185E+03
 7.25748E-01    2.59934E+03
 7.38925E-01    2.61169E+03
 7.38995E-01    2.61180E+03
 8.00000E-01    2.66652E+03
 9.00000E-01    2.74247E+03
 1.00000E+00    2.82371E+03
 1.10000E+00    2.90074E+03
 1.20000E+00    2.96562E+03
 1.30000E+00    3.01710E+03
 1.40000E+00    3.05590E+03
 1.50000E+00    3.08270E+03
 1.60000E+00    3.09895E+03
 1.70000E+00    3.10630E+03
 1.80000E+00    3.10670E+03
 1.90000E+00    3.10199E+03
 2.00000E+00    3.09381E+03
 2.25000E+00    3.06971E+03
 2.50000E+00    3.04010E+03
 2.75000E+00    3.01642E+03
 3.00000E+00    2.99905E+03
 3.50000E+00    2.96112E+03
 4.00000E+00    2.92722E+03
 4.50000E+00    2.90258E+03
 5.00000E+00    2.88519E+03
 5.50000E+00    2.86573E+03
 6.00000E+00    2.84202E+03
 6.50000E+00    2.81374E+03
 7.00000E+00    2.78488E+03
 7.50000E+00    2.75721E+03
 8.00000E+00    2.73187E+03
 8.50000E+00    2.72987E+03
 9.00000E+00    3.01314E+03
 9.50000E+00    3.44270E+03
 1.00000E+01    3.82514E+03
 1.05000E+01    4.10591E+03
 1.10000E+01    4.29334E+03
 1.15000E+01    4.41285E+03
 1.20000E+01    4.48710E+03
 1.25000E+01    4.52672E+03
 1.30000E+01    4.55447E+03
 1.35000E+01    4.56980E+03
 1.40000E+01    4.57710E+03
 1.45000E+01    4.57903E+03
 1.50000E+01    4.57735E+03
 1.55000E+01    4.57560E+03
 1.60000E+01    4.57572E+03
 1.65000E+01    4.61968E+03
 1.70000E+01    4.72306E+03
 1.75000E+01    4.87101E+03
 1.80000E+01    5.03752E+03
 1.85000E+01    5.20187E+03
 1.90000E+01    5.35137E+03
 1.95000E+01    5.48112E+03
 2.00000E+01    5.59026E+03
