# n + Dy158 : (n,xp)    
# jendl.ad   N.Iwamoto                         EVAL-Apr14
# 
# # energies =    98
#   E(MeV)        xs(mb) 
 9.95498E-02    0.00000E+00
 1.00000E-01    0.00000E+00
 1.05000E-01    0.00000E+00
 1.10000E-01    0.00000E+00
 1.20000E-01    0.00000E+00
 1.30000E-01    0.00000E+00
 1.40000E-01    0.00000E+00
 1.50000E-01    0.00000E+00
 1.60000E-01    2.32861E-17
 1.70000E-01    5.92269E-17
 1.80000E-01    9.51678E-17
 1.90000E-01    1.31109E-16
 2.00000E-01    1.67050E-16
 2.25000E-01    2.56901E-16
 2.50000E-01    3.46755E-16
 2.75000E-01    4.52990E-16
 3.00000E-01    5.81948E-16
 3.19165E-01    6.80808E-16
 4.00000E-01    1.09783E-15
 5.00000E-01    1.61360E-15
 6.00000E-01    2.12949E-15
 6.41785E-01    2.34504E-15
 7.00000E-01    2.64532E-15
 8.00000E-01    3.16110E-15
 9.00000E-01    3.67694E-15
 9.52364E-01    3.94706E-15
 9.96856E-01    4.17657E-15
 9.96857E-01    4.17657E-15
 1.00000E+00    4.19278E-15
 1.05056E+00    4.45359E-15
 1.05127E+00    4.45726E-15
 1.09251E+00    4.66999E-15
 1.10000E+00    4.70862E-15
 1.17118E+00    5.07580E-15
 1.20000E+00    9.89970E-15
 1.27710E+00    8.12980E-14
 1.27711E+00    8.13222E-14
 1.28818E+00    1.08070E-13
 1.30000E+00    1.46210E-13
 1.32318E+00    2.60350E-13
 1.37070E+00    8.25490E-13
 1.38049E+00    1.01200E-12
 1.40000E+00    1.54790E-12
 1.40609E+00    1.76920E-12
 1.45096E+00    4.52270E-12
 1.48643E+00    9.20540E-12
 1.49584E+00    1.10630E-11
 1.50000E+00    1.19930E-11
 1.51071E+00    1.47380E-11
 1.52321E+00    1.86600E-11
 1.52815E+00    2.04540E-11
 1.52981E+00    2.10530E-11
 1.53783E+00    2.43640E-11
 1.55720E+00    3.46100E-11
 1.56896E+00    4.27040E-11
 1.60000E+00    7.33910E-11
 1.70000E+00    3.72560E-10
 1.80000E+00    1.58350E-09
 1.90000E+00    5.85190E-09
 2.00000E+00    1.91740E-08
 2.25000E+00    2.48750E-07
 2.50000E+00    1.85992E-06
 2.75000E+00    1.02065E-05
 3.00000E+00    4.01583E-05
 3.50000E+00    3.52979E-04
 4.00000E+00    1.72407E-03
 4.50000E+00    5.63273E-03
 5.00000E+00    1.38499E-02
 5.50000E+00    2.60253E-02
 6.00000E+00    4.58964E-02
 6.50000E+00    7.44292E-02
 7.00000E+00    1.15489E-01
 7.50000E+00    1.76932E-01
 8.00000E+00    2.73472E-01
 8.50000E+00    4.26878E-01
 9.00000E+00    6.64614E-01
 9.50000E+00    1.01722E+00
 1.00000E+01    1.51471E+00
 1.05000E+01    2.18403E+00
 1.10000E+01    3.04111E+00
 1.15000E+01    4.10325E+00
 1.20000E+01    5.36990E+00
 1.25000E+01    6.84977E+00
 1.30000E+01    8.53122E+00
 1.35000E+01    1.04188E+01
 1.40000E+01    1.24953E+01
 1.45000E+01    1.47633E+01
 1.50000E+01    1.72045E+01
 1.55000E+01    1.98174E+01
 1.60000E+01    2.25939E+01
 1.65000E+01    2.55182E+01
 1.70000E+01    2.85874E+01
 1.75000E+01    3.17894E+01
 1.80000E+01    3.51241E+01
 1.85000E+01    3.85604E+01
 1.90000E+01    4.21213E+01
 1.95000E+01    4.57546E+01
 2.00000E+01    4.94974E+01
