# n + Dy158 : (n,p)m    
# jendl.ad   N.Iwamoto                         EVAL-Apr14
# uncertainties: n
# # energies =    63
#   E(MeV)       xs(mb) 
 2.64525E-01    0.00000E+00
 1.27710E+00    1.58400E-15
 1.28818E+00    2.13410E-15
 1.30000E+00    2.98160E-15
 1.32318E+00    5.69220E-15
 1.37070E+00    2.01940E-14
 1.38049E+00    2.55420E-14
 1.40000E+00    4.06070E-14
 1.40609E+00    4.69730E-14
 1.45096E+00    1.32780E-13
 1.48643E+00    2.84870E-13
 1.49584E+00    3.47460E-13
 1.50000E+00    3.79040E-13
 1.51071E+00    4.73480E-13
 1.52321E+00    6.11780E-13
 1.52815E+00    6.76290E-13
 1.52981E+00    6.99270E-13
 1.53783E+00    8.21270E-13
 1.55720E+00    1.20340E-12
 1.56896E+00    1.51110E-12
 1.60000E+00    2.66320E-12
 1.70000E+00    1.50480E-11
 1.80000E+00    6.95350E-11
 1.90000E+00    2.72510E-10
 2.00000E+00    9.27620E-10
 2.25000E+00    1.25460E-08
 2.50000E+00    9.17060E-08
 2.75000E+00    4.76190E-07
 3.00000E+00    1.72078E-06
 3.50000E+00    1.24704E-05
 4.00000E+00    5.00069E-05
 4.50000E+00    1.36423E-04
 5.00000E+00    2.86107E-04
 5.50000E+00    4.50446E-04
 6.00000E+00    6.87508E-04
 6.50000E+00    9.72205E-04
 7.00000E+00    1.32539E-03
 7.50000E+00    1.80925E-03
 8.00000E+00    2.55670E-03
 8.50000E+00    3.76612E-03
 9.00000E+00    5.68623E-03
 9.50000E+00    8.59216E-03
 1.00000E+01    1.27473E-02
 1.05000E+01    1.83941E-02
 1.10000E+01    2.56318E-02
 1.15000E+01    3.45711E-02
 1.20000E+01    4.50285E-02
 1.25000E+01    5.71141E-02
 1.30000E+01    7.05310E-02
 1.35000E+01    8.28328E-02
 1.40000E+01    9.79101E-02
 1.45000E+01    1.13676E-01
 1.50000E+01    1.29702E-01
 1.55000E+01    1.49205E-01
 1.60000E+01    1.66071E-01
 1.65000E+01    1.80823E-01
 1.70000E+01    1.95474E-01
 1.75000E+01    2.08225E-01
 1.80000E+01    2.13325E-01
 1.85000E+01    2.31365E-01
 1.90000E+01    2.33220E-01
 1.95000E+01    2.49589E-01
 2.00000E+01    2.54721E-01
