# n + Ho163 : (n,xn)    
# jendl.ad   N.Iwamoto                         EVAL-Apr14
# 
# # energies =   101
#   E(MeV)        xs(mb) 
 1.00325E-01    0.00000E+00
 1.00649E-01    1.45261E-03
 1.10000E-01    1.68150E+02
 1.20000E-01    2.34520E+02
 1.30000E-01    2.87676E+02
 1.40000E-01    3.33495E+02
 1.50000E-01    3.72966E+02
 1.60000E-01    4.21349E+02
 1.70000E-01    4.55305E+02
 1.80000E-01    4.85897E+02
 1.90000E-01    5.14386E+02
 2.00000E-01    5.40896E+02
 2.23596E-01    5.93014E+02
 2.25000E-01    6.06138E+02
 2.50000E-01    6.91616E+02
 2.75000E-01    7.63357E+02
 2.99724E-01    8.22491E+02
 3.00000E-01    8.23339E+02
 3.09544E-01    8.46337E+02
 3.09545E-01    8.46340E+02
 3.62591E-01    1.02768E+03
 3.68920E-01    1.05698E+03
 3.94497E-01    1.14353E+03
 4.00000E-01    1.19277E+03
 4.21594E-01    1.28720E+03
 4.33849E-01    1.34538E+03
 4.42664E-01    1.42389E+03
 4.43237E-01    1.43810E+03
 4.74167E-01    1.68430E+03
 5.00000E-01    1.81194E+03
 5.03478E-01    1.82645E+03
 5.31510E-01    1.95109E+03
 5.35082E-01    1.97542E+03
 5.55468E-01    2.05686E+03
 5.63467E-01    2.09690E+03
 5.81810E-01    2.16442E+03
 5.91197E-01    2.19559E+03
 5.91198E-01    2.19560E+03
 5.97677E-01    2.22415E+03
 6.00000E-01    2.23292E+03
 6.16594E-01    2.28583E+03
 6.18093E-01    2.29436E+03
 6.56097E-01    2.41068E+03
 6.68121E-01    2.44175E+03
 6.92340E-01    2.50255E+03
 6.99303E-01    2.51816E+03
 7.00000E-01    2.52131E+03
 7.14395E-01    2.55490E+03
 7.14396E-01    2.55490E+03
 7.24015E-01    2.57643E+03
 8.00000E-01    2.68434E+03
 9.00000E-01    2.78156E+03
 1.00000E+00    2.86609E+03
 1.10000E+00    2.91787E+03
 1.20000E+00    2.95184E+03
 1.30000E+00    2.97388E+03
 1.40000E+00    2.98749E+03
 1.50000E+00    2.99589E+03
 1.60000E+00    3.00060E+03
 1.70000E+00    3.00260E+03
 1.80000E+00    3.00280E+03
 1.90000E+00    3.00163E+03
 2.00000E+00    2.99931E+03
 2.25000E+00    2.99145E+03
 2.50000E+00    2.97681E+03
 2.75000E+00    2.96452E+03
 3.00000E+00    2.95357E+03
 3.50000E+00    2.93834E+03
 4.00000E+00    2.92504E+03
 4.50000E+00    2.90614E+03
 5.00000E+00    2.88457E+03
 5.50000E+00    2.86140E+03
 6.00000E+00    2.83774E+03
 6.50000E+00    2.81200E+03
 7.00000E+00    2.78498E+03
 7.50000E+00    2.75754E+03
 8.00000E+00    2.73106E+03
 8.50000E+00    2.71595E+03
 9.00000E+00    2.80766E+03
 9.50000E+00    3.17095E+03
 1.00000E+01    3.56303E+03
 1.05000E+01    3.87432E+03
 1.10000E+01    4.10004E+03
 1.15000E+01    4.24981E+03
 1.20000E+01    4.36319E+03
 1.25000E+01    4.44010E+03
 1.30000E+01    4.49053E+03
 1.35000E+01    4.52198E+03
 1.40000E+01    4.53996E+03
 1.45000E+01    4.54865E+03
 1.50000E+01    4.55088E+03
 1.55000E+01    4.55002E+03
 1.60000E+01    4.54682E+03
 1.65000E+01    4.57479E+03
 1.70000E+01    4.66137E+03
 1.75000E+01    4.80004E+03
 1.80000E+01    4.96549E+03
 1.85000E+01    5.13430E+03
 1.90000E+01    5.29185E+03
 1.95000E+01    5.42946E+03
 2.00000E+01    5.54737E+03
