# n + Ho163 : (n,xp)    
# jendl.ad   N.Iwamoto                         EVAL-Apr14
# 
# # energies =   101
#   E(MeV)        xs(mb) 
 1.00325E-01    2.41147E-16
 1.00649E-01    2.42805E-16
 1.10000E-01    2.90649E-16
 1.20000E-01    3.41814E-16
 1.30000E-01    3.92978E-16
 1.40000E-01    4.44143E-16
 1.50000E-01    4.95308E-16
 1.60000E-01    5.46473E-16
 1.70000E-01    5.97637E-16
 1.80000E-01    6.48802E-16
 1.90000E-01    6.99967E-16
 2.00000E-01    7.51132E-16
 2.23596E-01    6.16990E-15
 2.25000E-01    6.38540E-15
 2.50000E-01    1.18760E-14
 2.75000E-01    2.21850E-14
 2.99724E-01    4.63170E-14
 3.00000E-01    4.66140E-14
 3.09544E-01    5.90040E-14
 3.09545E-01    5.90066E-14
 3.62591E-01    1.96400E-13
 3.68920E-01    2.22750E-13
 3.94497E-01    3.91970E-13
 4.00000E-01    4.25880E-13
 4.21594E-01    6.57790E-13
 4.33849E-01    8.43090E-13
 4.42664E-01    9.71150E-13
 4.43237E-01    9.72170E-13
 4.74167E-01    1.59310E-12
 5.00000E-01    2.52390E-12
 5.03478E-01    2.68620E-12
 5.31510E-01    4.34800E-12
 5.35082E-01    4.56340E-12
 5.55468E-01    6.37000E-12
 5.63467E-01    7.21210E-12
 5.81810E-01    9.67840E-12
 5.91197E-01    1.12328E-11
 5.91198E-01    1.12330E-11
 5.97677E-01    1.23680E-11
 6.00000E-01    1.28100E-11
 6.16594E-01    1.65450E-11
 6.18093E-01    1.69090E-11
 6.56097E-01    2.96680E-11
 6.68121E-01    3.53830E-11
 6.92340E-01    4.99200E-11
 6.99303E-01    5.51210E-11
 7.00000E-01    5.56070E-11
 7.14395E-01    6.79481E-11
 7.14396E-01    6.79490E-11
 7.24015E-01    7.70960E-11
 8.00000E-01    2.16220E-10
 9.00000E-01    7.64800E-10
 1.00000E+00    2.37480E-09
 1.10000E+00    6.69170E-09
 1.20000E+00    1.73660E-08
 1.30000E+00    4.19090E-08
 1.40000E+00    9.49480E-08
 1.50000E+00    2.03120E-07
 1.60000E+00    4.13060E-07
 1.70000E+00    8.02520E-07
 1.80000E+00    1.49434E-06
 1.90000E+00    2.67468E-06
 2.00000E+00    4.61816E-06
 2.25000E+00    1.54535E-05
 2.50000E+00    4.50325E-05
 2.75000E+00    1.10991E-04
 3.00000E+00    2.41597E-04
 3.50000E+00    8.62719E-04
 4.00000E+00    2.27078E-03
 4.50000E+00    4.76156E-03
 5.00000E+00    8.46162E-03
 5.50000E+00    1.34214E-02
 6.00000E+00    1.99979E-02
 6.50000E+00    2.94386E-02
 7.00000E+00    4.46976E-02
 7.50000E+00    7.16400E-02
 8.00000E+00    1.19665E-01
 8.50000E+00    2.02097E-01
 9.00000E+00    3.36215E-01
 9.50000E+00    5.42620E-01
 1.00000E+01    8.43809E-01
 1.05000E+01    1.26274E+00
 1.10000E+01    1.82083E+00
 1.15000E+01    2.53645E+00
 1.20000E+01    3.42345E+00
 1.25000E+01    4.49178E+00
 1.30000E+01    5.74725E+00
 1.35000E+01    7.19210E+00
 1.40000E+01    8.82599E+00
 1.45000E+01    1.06467E+01
 1.50000E+01    1.26507E+01
 1.55000E+01    1.48336E+01
 1.60000E+01    1.71908E+01
 1.65000E+01    1.97171E+01
 1.70000E+01    2.24077E+01
 1.75000E+01    2.52578E+01
 1.80000E+01    2.82617E+01
 1.85000E+01    3.14146E+01
 1.90000E+01    3.47121E+01
 1.95000E+01    3.81417E+01
 2.00000E+01    4.16978E+01
