# n + Os187 : (n,n'13)  
# jendl4.0   N.Iwamoto                         EVAL-Jan10
# uncertainties: n
# # energies =    78
#   E(MeV)       xs(mb) 
 4.21261E-01    0.00000E+00
 4.44385E-01    4.44454E-03
 4.47441E-01    5.21191E-03
 4.61979E-01    1.01113E-02
 4.66503E-01    1.18419E-02
 5.00000E-01    3.35219E-02
 5.04155E-01    3.72653E-02
 5.10962E-01    4.39582E-02
 5.14360E-01    4.71383E-02
 5.39455E-01    7.70800E-02
 5.59905E-01    1.09353E-01
 5.89473E-01    1.56607E-01
 5.99668E-01    1.77213E-01
 6.00000E-01    1.77920E-01
 6.14296E-01    2.10294E-01
 6.21334E-01    2.27598E-01
 6.45333E-01    2.93254E-01
 6.67713E-01    3.63120E-01
 6.73615E-01    3.82940E-01
 6.87690E-01    4.27112E-01
 6.88193E-01    4.28397E-01
 7.00000E-01    4.67197E-01
 7.15067E-01    5.20870E-01
 7.29656E-01    5.75415E-01
 7.31023E-01    5.80733E-01
 7.49019E-01    6.52666E-01
 7.61084E-01    7.05183E-01
 8.00000E-01    8.57160E-01
 9.00000E-01    1.26917E+00
 1.00000E+00    1.65350E+00
 1.10000E+00    1.94558E+00
 1.20000E+00    2.12586E+00
 1.30000E+00    2.26462E+00
 1.40000E+00    2.36958E+00
 1.50000E+00    2.40184E+00
 1.60000E+00    2.39040E+00
 1.70000E+00    2.35181E+00
 1.80000E+00    2.29246E+00
 1.90000E+00    2.21694E+00
 2.00000E+00    2.12952E+00
 2.25000E+00    1.90736E+00
 2.50000E+00    1.60314E+00
 2.75000E+00    1.33970E+00
 3.00000E+00    1.33188E+00
 3.50000E+00    9.03355E-01
 4.00000E+00    6.07681E-01
 4.50000E+00    4.24008E-01
 5.00000E+00    3.17432E-01
 5.50000E+00    2.55932E-01
 6.00000E+00    2.19235E-01
 6.50000E+00    1.95395E-01
 7.00000E+00    1.78613E-01
 7.50000E+00    1.65844E-01
 8.00000E+00    1.55716E-01
 8.50000E+00    1.47350E-01
 9.00000E+00    1.40106E-01
 9.50000E+00    1.33476E-01
 1.00000E+01    1.27165E-01
 1.05000E+01    1.21024E-01
 1.10000E+01    1.15060E-01
 1.15000E+01    1.09314E-01
 1.20000E+01    1.03841E-01
 1.25000E+01    9.86881E-02
 1.30000E+01    9.38823E-02
 1.35000E+01    8.94305E-02
 1.40000E+01    8.53227E-02
 1.45000E+01    8.15357E-02
 1.50000E+01    7.80352E-02
 1.55000E+01    7.47799E-02
 1.60000E+01    7.17365E-02
 1.65000E+01    6.88725E-02
 1.70000E+01    6.61524E-02
 1.75000E+01    6.35497E-02
 1.80000E+01    6.10650E-02
 1.85000E+01    5.86932E-02
 1.90000E+01    5.64520E-02
 1.95000E+01    5.43326E-02
 2.00000E+01    5.23328E-02
