# n + Os187 : (n,n'11)  
# jendl4.0   N.Iwamoto                         EVAL-Jan10
# uncertainties: n
# # energies =    81
#   E(MeV)       xs(mb) 
 3.43342E-01    0.00000E+00
 3.51888E-01    8.81659E-02
 4.00000E-01    8.77408E-01
 4.21261E-01    1.52683E+00
 4.44385E-01    2.46056E+00
 4.47441E-01    2.59861E+00
 4.61979E-01    3.25573E+00
 4.66503E-01    3.47773E+00
 5.00000E-01    5.31881E+00
 5.04155E-01    5.57696E+00
 5.10962E-01    5.93851E+00
 5.14360E-01    6.13506E+00
 5.39455E-01    7.77285E+00
 5.59905E-01    9.13956E+00
 5.89473E-01    1.12723E+01
 5.99668E-01    1.18048E+01
 6.00000E-01    1.18036E+01
 6.14296E-01    1.26423E+01
 6.21334E-01    1.30221E+01
 6.45333E-01    1.45357E+01
 6.67713E-01    1.56351E+01
 6.73615E-01    1.59154E+01
 6.87690E-01    1.67315E+01
 6.88193E-01    1.67595E+01
 7.00000E-01    1.74719E+01
 7.15067E-01    1.84220E+01
 7.29656E-01    1.90670E+01
 7.31023E-01    1.91069E+01
 7.49019E-01    1.99625E+01
 7.61084E-01    2.03796E+01
 8.00000E-01    2.17216E+01
 9.00000E-01    2.49359E+01
 1.00000E+00    2.63639E+01
 1.10000E+00    2.57136E+01
 1.20000E+00    2.47974E+01
 1.30000E+00    2.37009E+01
 1.40000E+00    2.22287E+01
 1.50000E+00    2.05049E+01
 1.60000E+00    1.87725E+01
 1.70000E+00    1.70870E+01
 1.80000E+00    1.54752E+01
 1.90000E+00    1.39537E+01
 2.00000E+00    1.25348E+01
 2.25000E+00    9.61092E+00
 2.50000E+00    7.00755E+00
 2.75000E+00    5.15576E+00
 3.00000E+00    3.66699E+00
 3.50000E+00    1.83970E+00
 4.00000E+00    8.95553E-01
 4.50000E+00    4.30898E-01
 5.00000E+00    2.11202E-01
 5.50000E+00    1.09808E-01
 6.00000E+00    6.35680E-02
 6.50000E+00    4.22825E-02
 7.00000E+00    3.22643E-02
 7.50000E+00    2.72019E-02
 8.00000E+00    2.43532E-02
 8.50000E+00    2.25259E-02
 9.00000E+00    2.11841E-02
 9.50000E+00    2.00705E-02
 1.00000E+01    1.90643E-02
 1.05000E+01    1.81110E-02
 1.10000E+01    1.71990E-02
 1.15000E+01    1.63261E-02
 1.20000E+01    1.54992E-02
 1.25000E+01    1.47232E-02
 1.30000E+01    1.40013E-02
 1.35000E+01    1.33336E-02
 1.40000E+01    1.27181E-02
 1.45000E+01    1.21510E-02
 1.50000E+01    1.16270E-02
 1.55000E+01    1.11405E-02
 1.60000E+01    1.06857E-02
 1.65000E+01    1.02577E-02
 1.70000E+01    9.85114E-03
 1.75000E+01    9.46218E-03
 1.80000E+01    9.09094E-03
 1.85000E+01    8.73669E-03
 1.90000E+01    8.40212E-03
 1.95000E+01    8.08593E-03
 2.00000E+01    7.78777E-03
