# n + B  11 : (n,tot)   
# jendl.ad   T.FUKAHORI                        EVAL-MAY88
# uncertainties: n
# # energies =    69
#   E(MeV)       xs(mb) 
 1.00000E-10    3.55512E+01
 5.00000E-09    9.68129E+00
 1.00000E-08    7.33224E+00
 1.50000E-08    6.15976E+00
 2.00000E-08    5.41896E+00
 2.50000E-08    4.89506E+00
 3.00000E-08    4.49939E+00
 3.50000E-08    4.13709E+00
 4.20000E-08    3.78381E+00
 5.00000E-08    3.49071E+00
 5.80000E-08    3.24543E+00
 6.70000E-08    2.99636E+00
 8.00000E-08    2.71299E+00
 1.00000E-07    2.36321E+00
 1.40000E-07    2.03744E+00
 1.80000E-07    1.81697E+00
 2.20000E-07    1.67359E+00
 2.50000E-07    1.57655E+00
 2.80000E-07    1.50716E+00
 3.00000E-07    1.45785E+00
 3.20000E-07    1.40242E+00
 3.50000E-07    1.32577E+00
 4.00000E-07    1.21305E+00
 5.00000E-07    1.08712E+00
 6.25000E-07    9.72052E-01
 7.80000E-07    8.99218E-01
 8.50000E-07    8.64848E-01
 9.10000E-07    8.41736E-01
 9.50000E-07    8.28561E-01
 9.72000E-07    8.18821E-01
 9.96000E-07    8.09191E-01
 1.02000E-06    8.00378E-01
 1.04500E-06    7.91229E-01
 1.07100E-06    7.81898E-01
 1.09700E-06    7.72882E-01
 1.12300E-06    7.63985E-01
 1.15000E-06    7.35802E-01
 1.30000E-06    6.88037E-01
 1.50000E-06    6.10656E-01
 2.10000E-06    5.33686E-01
 2.60000E-06    4.75707E-01
 3.30000E-06    4.27230E-01
 4.00000E-06    3.28547E-01
 9.87700E-06    2.31590E-01
 1.59680E-05    1.79874E-01
 2.77000E-05    1.37166E-01
 4.80520E-05    1.07164E-01
 7.55014E-05    8.15778E-02
 1.48728E-04    5.59280E-02
 3.67262E-04    3.64788E-02
 9.06898E-04    2.66206E-02
 1.42510E-03    2.16832E-02
 2.23945E-03    1.78127E-02
 3.51910E-03    1.46794E-02
 5.53000E-03    1.20532E-02
 9.11800E-03    9.86600E-03
 1.50300E-02    4.17745E-01
 2.47800E-02    6.81316E-03
 4.08500E-02    5.72446E-03
 6.73400E-02    4.87900E-03
 1.11000E-01    4.24860E-03
 1.83000E-01    3.90950E-03
 3.02000E-01    1.15358E-02
 5.00000E-01    3.76316E-03
 8.21000E-01    7.00433E-03
 1.35300E+00    4.39719E-03
 2.23100E+00    4.17346E-03
 3.67900E+00    3.06730E-03
 6.06500E+00    3.72811E+00
