# n + Ce142 : (n,tot)   
# jendl.ad   kunieda                           EVAL-Mar14
# uncertainties: n
# # energies =    69
#   E(MeV)       xs(mb) 
 1.00000E-10    6.71166E+03
 5.00000E-09    1.82746E+03
 1.00000E-08    1.38398E+03
 1.50000E-08    1.16284E+03
 2.00000E-08    1.02304E+03
 2.50000E-08    9.24265E+02
 3.00000E-08    8.49547E+02
 3.50000E-08    7.81078E+02
 4.20000E-08    7.14533E+02
 5.00000E-08    6.59077E+02
 5.80000E-08    6.12492E+02
 6.70000E-08    5.65200E+02
 8.00000E-08    5.11553E+02
 1.00000E-07    4.45008E+02
 1.40000E-07    3.84018E+02
 1.80000E-07    3.42907E+02
 2.20000E-07    3.15755E+02
 2.50000E-07    2.97240E+02
 2.80000E-07    2.83956E+02
 3.00000E-07    2.74639E+02
 3.20000E-07    2.64341E+02
 3.50000E-07    2.50006E+02
 4.00000E-07    2.28749E+02
 5.00000E-07    2.04614E+02
 6.25000E-07    1.83096E+02
 7.80000E-07    1.69435E+02
 8.50000E-07    1.63086E+02
 9.10000E-07    1.58550E+02
 9.50000E-07    1.55997E+02
 9.72000E-07    1.54125E+02
 9.96000E-07    1.52247E+02
 1.02000E-06    1.50478E+02
 1.04500E-06    1.48640E+02
 1.07100E-06    1.46796E+02
 1.09700E-06    1.45105E+02
 1.12300E-06    1.43404E+02
 1.15000E-06    1.38242E+02
 1.30000E-06    1.29432E+02
 1.50000E-06    1.14851E+02
 2.10000E-06    9.99995E+01
 2.60000E-06    8.93172E+01
 3.30000E-06    8.01612E+01
 4.00000E-06    6.13715E+01
 9.87700E-06    4.30632E+01
 1.59680E-05    3.32127E+01
 2.77000E-05    2.51104E+01
 4.80520E-05    1.94429E+01
 7.55014E-05    1.46984E+01
 1.48728E-04    1.04966E+01
 3.67262E-04    1.25843E+01
 9.06898E-04    4.12112E+02
 1.42510E-03    1.71136E+02
 2.23945E-03    9.56679E+01
 3.51910E-03    1.07234E+02
 5.53000E-03    6.32426E+01
 9.11800E-03    3.53265E+01
 1.50300E-02    1.85814E+01
 2.47800E-02    1.65772E+01
 4.08500E-02    1.40290E+01
 6.73400E-02    1.20396E+01
 1.11000E-01    1.09558E+01
 1.83000E-01    9.71355E+00
 3.02000E-01    9.40875E+00
 5.00000E-01    8.88644E+00
 8.21000E-01    6.15004E+00
 1.35300E+00    5.50601E+00
 2.23100E+00    4.91582E+00
 3.67900E+00    2.67910E+00
 6.06500E+00    1.78004E+03
