# n + In  0 : (n,xn)
# jendl4.0   S.Kunieda, A.Ichihara, K.Shibata+ EVAL-FEB22
#
# # energies =    71
#   E(MeV)          xs(mb) 
 3.39192E-01    0.00000E+00
 3.50000E-01    5.63349E-01
 4.00000E-01    2.47110E+00
 4.50000E-01    4.08244E+00
 5.00000E-01    5.72036E+00
 5.50000E-01    7.53140E+00
 6.00000E-01    9.54717E+00
 6.02382E-01    9.58587E+00
 6.50000E-01    1.96080E+01
 7.00000E-01    2.77566E+01
 7.50000E-01    3.48414E+01
 8.00000E-01    4.16367E+01
 8.35854E-01    4.59015E+01
 8.50000E-01    5.03963E+01
 8.71716E-01    5.72655E+01
 9.00000E-01    6.69320E+01
 9.41977E-01    7.81070E+01
 9.49694E-01    9.22308E+01
 9.50000E-01    9.33247E+01
 1.00000E+00    1.82467E+02
 1.05064E+00    2.20365E+02
 1.08766E+00    2.58340E+02
 1.14251E+00    3.31537E+02
 1.20000E+00    5.05274E+02
 1.20297E+00    5.08491E+02
 1.29870E+00    6.22036E+02
 1.30192E+00    6.26008E+02
 1.35933E+00    7.46356E+02
 1.40000E+00    8.38853E+02
 1.43070E+00    8.60820E+02
 1.46150E+00    8.99408E+02
 1.47615E+00    9.25752E+02
 1.48290E+00    9.40030E+02
 1.49148E+00    9.58403E+02
 1.50157E+00    9.81295E+02
 1.60000E+00    1.29848E+03
 1.80000E+00    1.48774E+03
 2.00000E+00    1.60000E+03
 2.20000E+00    1.68395E+03
 2.40000E+00    1.74800E+03
 2.60000E+00    1.78867E+03
 2.80000E+00    1.82805E+03
 3.00000E+00    1.86146E+03
 3.25000E+00    1.90195E+03
 3.50000E+00    1.94081E+03
 3.75000E+00    1.98235E+03
 4.00000E+00    2.02260E+03
 4.25000E+00    2.06055E+03
 4.50000E+00    2.09266E+03
 4.75000E+00    2.11782E+03
 5.00000E+00    2.13529E+03
 5.50000E+00    2.14921E+03
 6.00000E+00    2.14060E+03
 6.50000E+00    2.11926E+03
 7.00000E+00    2.09296E+03
 7.50000E+00    2.06805E+03
 8.00000E+00    2.04770E+03
 8.50000E+00    2.03329E+03
 9.00000E+00    2.02447E+03
 9.50000E+00    2.03712E+03
 1.00000E+01    2.23260E+03
 1.10000E+01    2.81151E+03
 1.20000E+01    3.21475E+03
 1.30000E+01    3.43475E+03
 1.40000E+01    3.54122E+03
 1.50000E+01    3.58039E+03
 1.60000E+01    3.58049E+03
 1.70000E+01    3.56321E+03
 1.80000E+01    3.57466E+03
 1.90000E+01    3.64306E+03
 2.00000E+01    3.75475E+03
