# n + Xe131 : (n,non)   
# jendl4.0   S.Kunieda, A.Ichihara, K.Shibata+ EVAL-FEB22
# uncertainties: n
# # energies =   102
#   E(MeV)       xs(mb) 
 2.25000E-03    0.00000E+00
 2.25000E-03    1.83976E+03
 2.62500E-03    1.66670E+03
 3.00000E-03    1.53000E+03
 4.00000E-03    1.29000E+03
 5.00000E-03    1.13800E+03
 6.00000E-03    1.03100E+03
 7.00000E-03    9.50400E+02
 8.00000E-03    8.86200E+02
 9.00000E-03    8.33200E+02
 1.00000E-02    7.88200E+02
 1.25000E-02    6.96307E+02
 1.50000E-02    6.29237E+02
 2.00000E-02    5.36300E+02
 2.50000E-02    4.68059E+02
 3.00000E-02    4.18800E+02
 3.50000E-02    3.79646E+02
 4.00000E-02    3.48700E+02
 5.00000E-02    3.01900E+02
 6.00000E-02    2.68600E+02
 7.00000E-02    2.43800E+02
 8.00000E-02    2.24800E+02
 8.08029E-02    2.22734E+02
 9.00000E-02    3.17200E+02
 1.00000E-01    3.54000E+02
 1.20000E-01    4.01900E+02
 1.40000E-01    4.32600E+02
 1.60000E-01    4.52900E+02
 1.65193E-01    4.55815E+02
 1.80000E-01    4.68017E+02
 1.89953E-01    4.73654E+02
 2.00000E-01    4.79345E+02
 2.50000E-01    4.98300E+02
 3.00000E-01    5.10770E+02
 3.43774E-01    5.16163E+02
 3.50000E-01    5.23045E+02
 3.67299E-01    5.19254E+02
 4.00000E-01    6.82860E+02
 4.07934E-01    6.93969E+02
 4.50000E-01    9.02760E+02
 5.00000E-01    1.02534E+03
 5.50000E-01    1.10305E+03
 5.69545E-01    1.11857E+03
 6.00000E-01    1.17480E+03
 6.41899E-01    1.20963E+03
 6.50000E-01    1.23899E+03
 6.72073E-01    1.25560E+03
 7.00000E-01    1.31390E+03
 7.05293E-01    1.34099E+03
 7.15370E-01    1.40913E+03
 7.50000E-01    1.64351E+03
 8.00000E-01    1.69051E+03
 8.50000E-01    1.75522E+03
 9.00000E-01    1.78421E+03
 9.50000E-01    1.84363E+03
 1.00000E+00    1.86591E+03
 1.20000E+00    2.00009E+03
 1.40000E+00    2.09968E+03
 1.60000E+00    2.16556E+03
 1.80000E+00    2.20385E+03
 2.00000E+00    2.22670E+03
 2.20000E+00    2.24343E+03
 2.40000E+00    2.26041E+03
 2.57874E+00    2.27861E+03
 2.60000E+00    2.28078E+03
 2.80000E+00    2.30556E+03
 3.00000E+00    2.33295E+03
 3.25000E+00    2.36804E+03
 3.50000E+00    2.40016E+03
 3.75000E+00    2.42695E+03
 4.00000E+00    2.44531E+03
 4.25000E+00    2.45301E+03
 4.50000E+00    2.45021E+03
 4.75000E+00    2.43690E+03
 5.00000E+00    2.41523E+03
 5.50000E+00    2.35775E+03
 6.00000E+00    2.29725E+03
 6.50000E+00    2.24706E+03
 6.59768E+00    2.23432E+03
 6.65571E+00    2.22675E+03
 6.84265E+00    2.21817E+03
 7.00000E+00    2.21094E+03
 7.50000E+00    2.18959E+03
 8.00000E+00    2.17900E+03
 8.33566E+00    2.17607E+03
 8.50000E+00    2.17464E+03
 8.83939E+00    2.17335E+03
 9.00000E+00    2.17273E+03
 9.50000E+00    2.17127E+03
 1.00000E+01    2.16789E+03
 1.10000E+01    2.15407E+03
 1.20000E+01    2.13484E+03
 1.30000E+01    2.11575E+03
 1.31481E+01    2.11314E+03
 1.40000E+01    2.09815E+03
 1.50000E+01    2.08491E+03
 1.59827E+01    2.07433E+03
 1.60000E+01    2.07415E+03
 1.70000E+01    2.06829E+03
 1.80000E+01    2.06429E+03
 1.90000E+01    2.06082E+03
 2.00000E+01    2.05516E+03
