# n + Xe131 : (n,xt)    
# jendl4.0   S.Kunieda, A.Ichihara, K.Shibata+ EVAL-FEB22
# 
# # energies =    71
#   E(MeV)        xs(mb) 
 8.08029E-02    0.00000E+00
 9.00000E-02    0.00000E+00
 1.00000E-01    0.00000E+00
 1.20000E-01    0.00000E+00
 1.40000E-01    0.00000E+00
 1.60000E-01    0.00000E+00
 1.65193E-01    0.00000E+00
 1.80000E-01    0.00000E+00
 2.00000E-01    0.00000E+00
 2.50000E-01    0.00000E+00
 3.00000E-01    0.00000E+00
 3.43774E-01    0.00000E+00
 3.50000E-01    0.00000E+00
 3.67299E-01    0.00000E+00
 4.00000E-01    0.00000E+00
 4.07934E-01    0.00000E+00
 4.50000E-01    0.00000E+00
 5.00000E-01    0.00000E+00
 5.50000E-01    0.00000E+00
 5.69545E-01    0.00000E+00
 6.00000E-01    0.00000E+00
 6.41899E-01    0.00000E+00
 6.50000E-01    0.00000E+00
 6.72073E-01    0.00000E+00
 7.00000E-01    0.00000E+00
 7.05293E-01    0.00000E+00
 7.15370E-01    0.00000E+00
 7.50000E-01    0.00000E+00
 8.00000E-01    0.00000E+00
 8.50000E-01    0.00000E+00
 9.00000E-01    0.00000E+00
 9.50000E-01    0.00000E+00
 1.00000E+00    0.00000E+00
 1.20000E+00    0.00000E+00
 1.40000E+00    0.00000E+00
 1.60000E+00    0.00000E+00
 1.80000E+00    0.00000E+00
 2.00000E+00    0.00000E+00
 2.20000E+00    0.00000E+00
 2.40000E+00    0.00000E+00
 2.60000E+00    0.00000E+00
 2.80000E+00    0.00000E+00
 3.00000E+00    0.00000E+00
 3.25000E+00    0.00000E+00
 3.50000E+00    0.00000E+00
 3.75000E+00    0.00000E+00
 4.00000E+00    0.00000E+00
 4.25000E+00    0.00000E+00
 4.50000E+00    0.00000E+00
 4.75000E+00    0.00000E+00
 5.00000E+00    0.00000E+00
 5.50000E+00    0.00000E+00
 6.00000E+00    0.00000E+00
 6.50000E+00    0.00000E+00
 7.00000E+00    9.05800E-35
 7.50000E+00    9.74100E-22
 8.00000E+00    1.04300E-16
 8.50000E+00    1.30100E-13
 9.00000E+00    2.48900E-11
 9.50000E+00    1.65200E-09
 1.00000E+01    3.79000E-08
 1.10000E+01    1.15000E-05
 1.20000E+01    2.14400E-04
 1.30000E+01    1.86100E-03
 1.40000E+01    9.69800E-03
 1.50000E+01    3.67600E-02
 1.60000E+01    1.07100E-01
 1.70000E+01    2.42500E-01
 1.80000E+01    4.49100E-01
 1.90000E+01    7.18600E-01
 2.00000E+01    1.03700E+00
