# n + Xe131 : (n,n'02)  
# jendl4.0   S.Kunieda, A.Ichihara, K.Shibata+ EVAL-FEB22
# uncertainties: n
# # energies =    57
#   E(MeV)       xs(mb) 
 1.65193E-01    0.00000E+00
 1.80000E-01    3.21700E+00
 2.00000E-01    7.24500E+00
 2.50000E-01    1.60000E+01
 3.00000E-01    2.51700E+01
 3.50000E-01    3.38800E+01
 4.00000E-01    3.57500E+01
 4.50000E-01    3.81700E+01
 5.00000E-01    4.17100E+01
 5.50000E-01    4.59000E+01
 6.00000E-01    5.04900E+01
 6.50000E-01    5.32700E+01
 7.00000E-01    5.22900E+01
 7.50000E-01    5.95700E+01
 8.00000E-01    6.04200E+01
 8.50000E-01    5.71200E+01
 9.00000E-01    5.95300E+01
 9.50000E-01    5.56500E+01
 1.00000E+00    5.83000E+01
 1.20000E+00    5.46700E+01
 1.40000E+00    4.97600E+01
 1.60000E+00    4.41100E+01
 1.80000E+00    3.82600E+01
 2.00000E+00    3.26700E+01
 2.20000E+00    2.77600E+01
 2.40000E+00    2.35500E+01
 2.60000E+00    1.99400E+01
 2.80000E+00    1.68400E+01
 3.00000E+00    1.41500E+01
 3.25000E+00    1.12100E+01
 3.50000E+00    8.90200E+00
 3.75000E+00    6.91700E+00
 4.00000E+00    5.35900E+00
 4.25000E+00    4.08000E+00
 4.50000E+00    3.09000E+00
 4.75000E+00    2.30800E+00
 5.00000E+00    1.71600E+00
 5.50000E+00    9.28800E-01
 6.00000E+00    4.96100E-01
 6.50000E+00    2.63600E-01
 7.00000E+00    1.39700E-01
 7.50000E+00    7.39000E-02
 8.00000E+00    3.92100E-02
 8.50000E+00    2.09300E-02
 9.00000E+00    1.12600E-02
 9.50000E+00    6.10700E-03
 1.00000E+01    3.33900E-03
 1.10000E+01    1.02400E-03
 1.20000E+01    3.25600E-04
 1.30000E+01    1.07200E-04
 1.40000E+01    3.66400E-05
 1.50000E+01    1.29700E-05
 1.60000E+01    4.74000E-06
 1.70000E+01    1.78500E-06
 1.80000E+01    6.89800E-07
 1.90000E+01    2.72700E-07
 2.00000E+01    1.09900E-07
