# n + Xe131 : (n,n'01)  
# jendl4.0   S.Kunieda, A.Ichihara, K.Shibata+ EVAL-FEB22
# uncertainties: n
# # energies =    62
#   E(MeV)       xs(mb) 
 8.08029E-02    0.00000E+00
 9.00000E-02    1.15600E+02
 1.00000E-01    1.67800E+02
 1.20000E-01    2.37000E+02
 1.40000E-01    2.81700E+02
 1.60000E-01    3.11900E+02
 1.80000E-01    3.33300E+02
 2.00000E-01    3.48600E+02
 2.50000E-01    3.71800E+02
 3.00000E-01    3.83500E+02
 3.50000E-01    3.89500E+02
 4.00000E-01    3.75400E+02
 4.50000E-01    3.38000E+02
 5.00000E-01    3.14000E+02
 5.50000E-01    2.98500E+02
 6.00000E-01    2.80700E+02
 6.50000E-01    2.66700E+02
 7.00000E-01    2.55100E+02
 7.50000E-01    2.84500E+02
 8.00000E-01    2.67500E+02
 8.50000E-01    2.43700E+02
 9.00000E-01    2.35600E+02
 9.50000E-01    2.14400E+02
 1.00000E+00    2.09700E+02
 1.20000E+00    1.66900E+02
 1.40000E+00    1.31400E+02
 1.60000E+00    1.02000E+02
 1.80000E+00    7.80500E+01
 2.00000E+00    5.94500E+01
 2.20000E+00    4.52900E+01
 2.40000E+00    3.46000E+01
 2.60000E+00    2.65600E+01
 2.80000E+00    2.05100E+01
 3.00000E+00    1.59200E+01
 3.25000E+00    1.16000E+01
 3.50000E+00    8.61000E+00
 3.75000E+00    6.32700E+00
 4.00000E+00    4.67800E+00
 4.25000E+00    3.41800E+00
 4.50000E+00    2.49000E+00
 4.75000E+00    1.79200E+00
 5.00000E+00    1.28100E+00
 5.50000E+00    6.39800E-01
 6.00000E+00    3.13300E-01
 6.50000E+00    1.52200E-01
 7.00000E+00    7.38300E-02
 7.50000E+00    3.59800E-02
 8.00000E+00    1.77300E-02
 8.50000E+00    8.88000E-03
 9.00000E+00    4.52400E-03
 9.50000E+00    2.34300E-03
 1.00000E+01    1.23200E-03
 1.10000E+01    3.54700E-04
 1.20000E+01    1.07400E-04
 1.30000E+01    3.40600E-05
 1.40000E+01    1.12700E-05
 1.50000E+01    3.87400E-06
 1.60000E+01    1.37700E-06
 1.70000E+01    5.04100E-07
 1.80000E+01    1.89700E-07
 1.90000E+01    7.32700E-08
 2.00000E+01    2.89600E-08
