# n + Xe131 : (n,a)     
# jendl4.0   S.Kunieda, A.Ichihara, K.Shibata+ EVAL-FEB22
# uncertainties: n
# # energies =    50
#   E(MeV)       xs(mb) 
 1.00000E-01    0.00000E+00
 5.00000E-01    1.17800E-04
 5.50000E-01    1.20200E-04
 6.00000E-01    1.25800E-04
 6.50000E-01    1.33200E-04
 7.00000E-01    1.37400E-04
 7.50000E-01    1.39500E-04
 8.00000E-01    1.47700E-04
 8.50000E-01    1.50100E-04
 9.00000E-01    1.64500E-04
 9.50000E-01    1.67600E-04
 1.00000E+00    2.12700E-04
 1.20000E+00    2.64200E-04
 1.40000E+00    3.42500E-04
 1.60000E+00    4.52600E-04
 1.80000E+00    5.99300E-04
 2.00000E+00    7.76300E-04
 2.20000E+00    9.75500E-04
 2.40000E+00    1.21000E-03
 2.60000E+00    1.49900E-03
 2.80000E+00    1.85300E-03
 3.00000E+00    2.28200E-03
 3.25000E+00    2.91900E-03
 3.50000E+00    3.75900E-03
 3.75000E+00    4.71900E-03
 4.00000E+00    5.94200E-03
 4.25000E+00    7.27800E-03
 4.50000E+00    8.94500E-03
 4.75000E+00    1.06700E-02
 5.00000E+00    1.24800E-02
 5.50000E+00    1.69300E-02
 6.00000E+00    2.21000E-02
 6.50000E+00    2.80200E-02
 7.00000E+00    3.47100E-02
 7.50000E+00    4.26400E-02
 8.00000E+00    5.25900E-02
 8.50000E+00    6.59400E-02
 9.00000E+00    8.47200E-02
 9.50000E+00    1.11800E-01
 1.00000E+01    1.50900E-01
 1.10000E+01    2.85400E-01
 1.20000E+01    5.29400E-01
 1.30000E+01    9.13300E-01
 1.40000E+01    1.43400E+00
 1.50000E+01    2.05300E+00
 1.60000E+01    2.70100E+00
 1.70000E+01    3.28500E+00
 1.80000E+01    3.72900E+00
 1.90000E+01    4.00900E+00
 2.00000E+01    4.15000E+00
