# n + Xe131 : (n,xn)    
# jendl4.0   S.Kunieda, A.Ichihara, K.Shibata+ EVAL-FEB22
# 
# # energies =    71
#   E(MeV)        xs(mb) 
 8.08029E-02    0.00000E+00
 9.00000E-02    1.15600E+02
 1.00000E-01    1.67800E+02
 1.20000E-01    2.37000E+02
 1.40000E-01    2.81700E+02
 1.60000E-01    3.11900E+02
 1.65193E-01    3.17457E+02
 1.80000E-01    3.36517E+02
 2.00000E-01    3.55845E+02
 2.50000E-01    3.87800E+02
 3.00000E-01    4.08670E+02
 3.43774E-01    4.21548E+02
 3.50000E-01    4.29375E+02
 3.67299E-01    4.35106E+02
 4.00000E-01    6.13240E+02
 4.07934E-01    6.27104E+02
 4.50000E-01    8.48110E+02
 5.00000E-01    9.77930E+02
 5.50000E-01    1.05956E+03
 5.69545E-01    1.07626E+03
 6.00000E-01    1.13419E+03
 6.41899E-01    1.17137E+03
 6.50000E-01    1.20115E+03
 6.72073E-01    1.21964E+03
 7.00000E-01    1.28011E+03
 7.05293E-01    1.30756E+03
 7.15370E-01    1.37639E+03
 7.50000E-01    1.61295E+03
 8.00000E-01    1.66178E+03
 8.50000E-01    1.72932E+03
 9.00000E-01    1.75885E+03
 9.50000E-01    1.82065E+03
 1.00000E+00    1.84302E+03
 1.20000E+00    1.98066E+03
 1.40000E+00    2.08267E+03
 1.60000E+00    2.15034E+03
 1.80000E+00    2.19016E+03
 2.00000E+00    2.21426E+03
 2.20000E+00    2.23202E+03
 2.40000E+00    2.24987E+03
 2.60000E+00    2.27099E+03
 2.80000E+00    2.29644E+03
 3.00000E+00    2.32446E+03
 3.25000E+00    2.36040E+03
 3.50000E+00    2.39316E+03
 3.75000E+00    2.42072E+03
 4.00000E+00    2.43970E+03
 4.25000E+00    2.44810E+03
 4.50000E+00    2.44586E+03
 4.75000E+00    2.43314E+03
 5.00000E+00    2.41191E+03
 5.50000E+00    2.35525E+03
 6.00000E+00    2.29533E+03
 6.50000E+00    2.24550E+03
 7.00000E+00    2.23862E+03
 7.50000E+00    2.35770E+03
 8.00000E+00    2.59954E+03
 8.50000E+00    2.89709E+03
 9.00000E+00    3.18336E+03
 9.50000E+00    3.43019E+03
 1.00000E+01    3.61886E+03
 1.10000E+01    3.84340E+03
 1.20000E+01    3.93530E+03
 1.30000E+01    3.95869E+03
 1.40000E+01    3.94889E+03
 1.50000E+01    3.92817E+03
 1.60000E+01    3.90152E+03
 1.70000E+01    3.89892E+03
 1.80000E+01    4.03384E+03
 1.90000E+01    4.28045E+03
 2.00000E+01    4.52930E+03
