# n + B  10 : (n,xp)    
# jendl4.0   S.CHIBA                           EVAL-MAR87
# 
# # energies =    96
#   E(MeV)        xs(mb) 
 7.90660E-01    3.61152E-01
 8.00000E-01    4.15501E-01
 1.00000E+00    5.97537E+00
 1.20000E+00    7.96832E+00
 1.40000E+00    9.96127E+00
 1.60000E+00    1.19542E+01
 1.80000E+00    1.68061E+01
 1.91550E+00    1.96081E+01
 2.00000E+00    2.16580E+01
 2.20000E+00    2.19950E+01
 2.37100E+00    2.22832E+01
 2.40000E+00    2.23320E+01
 2.60000E+00    2.26691E+01
 2.80000E+00    2.30061E+01
 3.00000E+00    2.33431E+01
 3.20000E+00    2.25463E+01
 3.40000E+00    2.19811E+01
 3.60000E+00    2.61417E+01
 3.80000E+00    3.13178E+01
 3.94830E+00    3.26789E+01
 4.00000E+00    3.31534E+01
 4.20000E+00    3.71247E+01
 4.40000E+00    4.06621E+01
 4.60000E+00    4.31503E+01
 4.80000E+00    4.45169E+01
 4.90000E+00    4.52002E+01
 5.00000E+00    4.58836E+01
 5.20000E+00    4.77087E+01
 5.25490E+00    4.72921E+01
 5.60000E+00    4.80247E+01
 5.62480E+00    4.75183E+01
 5.68310E+00    4.63279E+01
 5.70180E+00    4.59461E+01
 6.00000E+00    4.48657E+01
 6.20000E+00    4.48852E+01
 6.40000E+00    4.47024E+01
 6.51640E+00    4.33769E+01
 6.60000E+00    4.24495E+01
 6.60440E+00    4.23739E+01
 6.63190E+00    4.19013E+01
 6.74420E+00    4.04378E+01
 6.80000E+00    3.97446E+01
 7.00000E+00    4.23204E+01
 7.15480E+00    4.38646E+01
 7.22190E+00    4.42237E+01
 7.50000E+00    4.35090E+01
 7.57420E+00    4.35328E+01
 7.70520E+00    4.36040E+01
 8.00000E+00    4.43450E+01
 8.25550E+00    4.39720E+01
 8.50000E+00    4.36151E+01
 8.80590E+00    4.32039E+01
 9.00000E+00    4.29575E+01
 9.35630E+00    4.23642E+01
 9.50000E+00    4.21126E+01
 9.90660E+00    4.07995E+01
 1.00000E+01    4.04979E+01
 1.04570E+01    4.03064E+01
 1.05000E+01    4.02884E+01
 1.10000E+01    3.96189E+01
 1.10070E+01    3.96157E+01
 1.15000E+01    3.93889E+01
 1.15580E+01    3.93622E+01
 1.20000E+01    3.91589E+01
 1.21080E+01    3.90793E+01
 1.25000E+01    3.87903E+01
 1.26580E+01    3.86738E+01
 1.30000E+01    3.84217E+01
 1.32090E+01    3.82319E+01
 1.35000E+01    3.79678E+01
 1.37590E+01    3.77326E+01
 1.40000E+01    3.75138E+01
 1.41500E+01    3.93426E+01
 1.43100E+01    4.12934E+01
 1.45000E+01    4.36100E+01
 1.48600E+01    4.79992E+01
 1.50000E+01    4.97061E+01
 1.54100E+01    4.93176E+01
 1.55000E+01    4.92323E+01
 1.59610E+01    4.87955E+01
 1.60000E+01    4.87585E+01
 1.65000E+01    4.79392E+01
 1.65110E+01    4.79212E+01
 1.70000E+01    4.71199E+01
 1.70610E+01    4.70199E+01
 1.75000E+01    4.63005E+01
 1.76120E+01    4.61170E+01
 1.80000E+01    4.54812E+01
 1.81620E+01    4.47968E+01
 1.85000E+01    4.33690E+01
 1.87130E+01    4.24692E+01
 1.90000E+01    4.12568E+01
 1.92630E+01    4.01458E+01
 1.95000E+01    3.91446E+01
 1.98130E+01    3.78224E+01
 2.00000E+01    3.70324E+01
