# n + B  10 : (n,xd)    
# jendl4.0   S.CHIBA                           EVAL-MAR87
# 
# # energies =    96
#   E(MeV)        xs(mb) 
 7.90660E-01    0.00000E+00
 8.00000E-01    0.00000E+00
 1.00000E+00    0.00000E+00
 1.20000E+00    0.00000E+00
 1.40000E+00    0.00000E+00
 1.60000E+00    0.00000E+00
 1.80000E+00    0.00000E+00
 1.91550E+00    0.00000E+00
 2.00000E+00    0.00000E+00
 2.20000E+00    0.00000E+00
 2.37100E+00    0.00000E+00
 2.40000E+00    0.00000E+00
 2.60000E+00    0.00000E+00
 2.80000E+00    0.00000E+00
 3.00000E+00    0.00000E+00
 3.20000E+00    0.00000E+00
 3.40000E+00    0.00000E+00
 3.60000E+00    0.00000E+00
 3.80000E+00    0.00000E+00
 3.94830E+00    0.00000E+00
 4.00000E+00    0.00000E+00
 4.20000E+00    0.00000E+00
 4.40000E+00    0.00000E+00
 4.60000E+00    0.00000E+00
 4.80000E+00    0.00000E+00
 4.90000E+00    2.88403E-02
 5.00000E+00    5.80900E-02
 5.20000E+00    4.33961E+00
 5.25490E+00    5.51489E+00
 5.60000E+00    1.29026E+01
 5.62480E+00    1.34336E+01
 5.68310E+00    1.46816E+01
 5.70180E+00    1.50819E+01
 6.00000E+00    2.14657E+01
 6.20000E+00    2.56983E+01
 6.40000E+00    2.99064E+01
 6.51640E+00    3.19935E+01
 6.60000E+00    3.26061E+01
 6.60440E+00    3.26384E+01
 6.63190E+00    3.28399E+01
 6.74420E+00    3.36629E+01
 6.80000E+00    3.40719E+01
 7.00000E+00    3.54017E+01
 7.15480E+00    3.62943E+01
 7.22190E+00    3.66813E+01
 7.50000E+00    3.83678E+01
 7.57420E+00    3.90541E+01
 7.70520E+00    3.97975E+01
 8.00000E+00    4.08242E+01
 8.25550E+00    4.31459E+01
 8.50000E+00    4.53676E+01
 8.80590E+00    4.81472E+01
 9.00000E+00    4.99110E+01
 9.35630E+00    5.13886E+01
 9.50000E+00    5.19845E+01
 9.90660E+00    5.36707E+01
 1.00000E+01    5.40580E+01
 1.04570E+01    5.38060E+01
 1.05000E+01    5.37823E+01
 1.10000E+01    5.35066E+01
 1.10070E+01    5.34921E+01
 1.15000E+01    5.24715E+01
 1.15580E+01    5.23515E+01
 1.20000E+01    5.14365E+01
 1.21080E+01    5.12122E+01
 1.25000E+01    5.03980E+01
 1.26580E+01    5.00699E+01
 1.30000E+01    4.93596E+01
 1.32090E+01    4.89976E+01
 1.35000E+01    4.84936E+01
 1.37590E+01    4.80451E+01
 1.40000E+01    4.76277E+01
 1.41500E+01    4.75344E+01
 1.43100E+01    4.74348E+01
 1.45000E+01    4.73166E+01
 1.48600E+01    4.70925E+01
 1.50000E+01    4.70054E+01
 1.54100E+01    4.64415E+01
 1.55000E+01    4.63177E+01
 1.59610E+01    4.56836E+01
 1.60000E+01    4.56300E+01
 1.65000E+01    4.46471E+01
 1.65110E+01    4.46255E+01
 1.70000E+01    4.36643E+01
 1.70610E+01    4.35256E+01
 1.75000E+01    4.25272E+01
 1.76120E+01    4.22725E+01
 1.80000E+01    4.13902E+01
 1.81620E+01    4.10126E+01
 1.85000E+01    4.02247E+01
 1.87130E+01    3.97282E+01
 1.90000E+01    3.90592E+01
 1.92630E+01    3.84728E+01
 1.95000E+01    3.79445E+01
 1.98130E+01    3.72466E+01
 2.00000E+01    3.68297E+01
