# n + Th230 : (n,xn)    
# endfb8.0   O.Iwamoto, T.Nakagawa, et al.     EVAL-FEB10
# 
# # energies =    73
#   E(MeV)        xs(mb) 
 5.34333E-02    0.00000E+00
 7.00000E-02    1.74934E+02
 1.00000E-01    4.24546E+02
 1.10967E-01    4.79948E+02
 1.20000E-01    5.25595E+02
 1.40000E-01    6.09807E+02
 1.70000E-01    7.25416E+02
 1.74863E-01    7.43610E+02
 2.00000E-01    8.42561E+02
 2.50000E-01    9.54667E+02
 3.00000E-01    1.07712E+03
 3.58164E-01    1.13893E+03
 4.00000E-01    1.19165E+03
 5.00000E-01    1.36694E+03
 5.10388E-01    1.37542E+03
 5.74277E-01    1.57106E+03
 5.96705E-01    1.62352E+03
 6.00000E-01    1.63096E+03
 6.37684E-01    1.71177E+03
 6.80571E-01    1.82995E+03
 6.89711E-01    1.86285E+03
 7.00000E-01    1.89453E+03
 8.00000E-01    2.10536E+03
 9.00000E-01    2.28401E+03
 1.00000E+00    2.44150E+03
 1.10000E+00    2.55474E+03
 1.20000E+00    2.65315E+03
 1.30000E+00    2.74127E+03
 1.40000E+00    2.82162E+03
 1.50000E+00    2.89608E+03
 1.60000E+00    2.96332E+03
 1.70000E+00    3.02377E+03
 1.80000E+00    3.07779E+03
 1.90000E+00    3.12331E+03
 2.00000E+00    3.16354E+03
 2.30000E+00    3.24241E+03
 2.50000E+00    3.26871E+03
 2.70000E+00    3.28304E+03
 3.00000E+00    3.28815E+03
 3.50000E+00    3.27342E+03
 4.00000E+00    3.24965E+03
 4.50000E+00    3.20357E+03
 5.00000E+00    3.18381E+03
 5.50000E+00    3.14551E+03
 6.00000E+00    3.10083E+03
 6.50000E+00    2.87112E+03
 7.00000E+00    2.61202E+03
 7.50000E+00    2.91425E+03
 8.00000E+00    3.52014E+03
 8.50000E+00    4.02746E+03
 9.00000E+00    4.38218E+03
 9.50000E+00    4.57633E+03
 1.00000E+01    4.66458E+03
 1.05000E+01    4.66644E+03
 1.10000E+01    4.64762E+03
 1.15000E+01    4.62895E+03
 1.20000E+01    4.61983E+03
 1.25000E+01    4.61999E+03
 1.30000E+01    4.65024E+03
 1.35000E+01    4.74169E+03
 1.40000E+01    4.86625E+03
 1.45000E+01    4.98504E+03
 1.50000E+01    5.07318E+03
 1.55000E+01    5.16094E+03
 1.60000E+01    5.18914E+03
 1.65000E+01    5.27378E+03
 1.70000E+01    5.29887E+03
 1.75000E+01    5.33154E+03
 1.80000E+01    5.37516E+03
 1.85000E+01    5.42465E+03
 1.90000E+01    5.47894E+03
 1.95000E+01    5.53934E+03
 2.00000E+01    5.59232E+03
