# n + Kr 83 : (n,xn)    
# jendl4.0   K.Shibata, A.Ichihara, S.Kunieda  EVAL-AUG09
# 
# # energies =    73
#   E(MeV)        xs(mb) 
 9.51030E-03    0.00000E+00
 1.00000E-02    5.48900E+02
 2.00000E-02    5.01000E+02
 3.00000E-02    5.11400E+02
 4.00000E-02    5.18100E+02
 4.20484E-02    5.19821E+02
 5.00000E-02    5.26574E+02
 6.00000E-02    5.37309E+02
 7.00000E-02    5.49155E+02
 8.00000E-02    5.61404E+02
 9.00000E-02    5.73866E+02
 1.00000E-01    5.86540E+02
 2.00000E-01    6.95502E+02
 3.00000E-01    7.56251E+02
 4.00000E-01    7.80313E+02
 5.00000E-01    7.81010E+02
 5.68862E-01    7.64972E+02
 5.78154E-01    7.70292E+02
 6.00000E-01    7.84591E+02
 6.98546E-01    7.90837E+02
 7.00000E-01    7.97036E+02
 8.00000E-01    8.14240E+02
 8.08619E-01    8.13345E+02
 8.20866E-01    8.16025E+02
 9.00000E-01    8.36822E+02
 1.00000E+00    8.57436E+02
 1.02417E+00    8.46970E+02
 1.11338E+00    8.67751E+02
 1.11631E+00    8.68451E+02
 1.13568E+00    8.83456E+02
 1.18464E+00    9.49406E+02
 1.23674E+00    1.03491E+03
 1.29345E+00    1.13601E+03
 1.50000E+00    1.50625E+03
 1.53525E+00    1.49004E+03
 1.54776E+00    1.48609E+03
 1.55235E+00    1.48557E+03
 1.55681E+00    1.48609E+03
 1.66247E+00    1.51092E+03
 1.68829E+00    1.52322E+03
 1.74255E+00    1.55581E+03
 1.75962E+00    1.57230E+03
 1.80256E+00    1.62715E+03
 1.91188E+00    1.78097E+03
 1.92200E+00    1.79668E+03
 2.00000E+00    1.91976E+03
 2.50000E+00    1.97782E+03
 3.00000E+00    2.00589E+03
 3.50000E+00    2.01675E+03
 4.00000E+00    1.99446E+03
 4.50000E+00    1.94734E+03
 5.00000E+00    1.89735E+03
 5.50000E+00    1.85521E+03
 6.00000E+00    1.82419E+03
 6.50000E+00    1.80287E+03
 7.00000E+00    1.78875E+03
 7.50000E+00    1.77885E+03
 8.00000E+00    1.78422E+03
 8.50000E+00    1.82195E+03
 9.00000E+00    1.90647E+03
 9.50000E+00    2.01872E+03
 1.00000E+01    2.13559E+03
 1.10000E+01    2.38934E+03
 1.20000E+01    2.62284E+03
 1.30000E+01    2.76183E+03
 1.40000E+01    2.83314E+03
 1.45000E+01    2.86386E+03
 1.50000E+01    2.87404E+03
 1.60000E+01    2.88946E+03
 1.70000E+01    2.88673E+03
 1.80000E+01    2.88463E+03
 1.90000E+01    2.86930E+03
 2.00000E+01    2.87597E+03
