# n + Sm144 : (n,xa)    
# jendl4.0   N.Iwamoto                         EVAL-Nov09
# 
# # energies =    89
#   E(MeV)        xs(mb) 
 1.05000E-01    1.04102E-03
 1.10000E-01    1.03503E-03
 1.20000E-01    1.02306E-03
 1.30000E-01    1.01298E-03
 1.40000E-01    1.00355E-03
 1.50000E-01    9.96549E-04
 1.60000E-01    9.91215E-04
 1.70000E-01    9.96350E-04
 1.80000E-01    1.00149E-03
 1.90000E-01    1.00662E-03
 2.00000E-01    1.01176E-03
 2.25000E-01    1.02828E-03
 2.50000E-01    1.04503E-03
 2.75000E-01    1.09278E-03
 3.00000E-01    1.14142E-03
 4.00000E-01    1.34838E-03
 5.00000E-01    1.71535E-03
 6.00000E-01    2.14065E-03
 7.00000E-01    2.74783E-03
 8.00000E-01    3.55908E-03
 9.00000E-01    4.55911E-03
 1.00000E+00    5.79760E-03
 1.10000E+00    7.47356E-03
 1.20000E+00    9.62044E-03
 1.30000E+00    1.23603E-02
 1.40000E+00    1.58445E-02
 1.50000E+00    2.02798E-02
 1.60000E+00    2.58588E-02
 1.67166E+00    3.07752E-02
 1.70000E+00    2.83724E-02
 1.80000E+00    3.06243E-02
 1.82286E+00    3.14657E-02
 1.90000E+00    2.98436E-02
 2.00000E+00    3.27574E-02
 2.13486E+00    3.88568E-02
 2.18219E+00    4.05733E-02
 2.20625E+00    4.04400E-02
 2.25000E+00    3.98553E-02
 2.33989E+00    4.30267E-02
 2.44019E+00    4.82729E-02
 2.49502E+00    4.95356E-02
 2.50000E+00    4.94929E-02
 2.60592E+00    5.47137E-02
 2.66324E+00    5.74185E-02
 2.67934E+00    5.74417E-02
 2.70723E+00    5.73808E-02
 2.72601E+00    5.73398E-02
 2.74813E+00    5.80349E-02
 2.75000E+00    5.78253E-02
 2.81927E+00    5.96163E-02
 2.82365E+00    5.94802E-02
 2.84230E+00    5.91551E-02
 2.84552E+00    5.96409E-02
 2.84681E+00    5.96314E-02
 3.00000E+00    6.46383E-02
 3.50000E+00    8.14448E-02
 4.00000E+00    1.07199E-01
 4.50000E+00    1.45431E-01
 5.00000E+00    1.98736E-01
 5.50000E+00    2.70075E-01
 6.00000E+00    3.63759E-01
 6.50000E+00    4.85219E-01
 7.00000E+00    6.39068E-01
 7.50000E+00    8.30176E-01
 8.00000E+00    1.06157E+00
 8.50000E+00    1.34251E+00
 9.00000E+00    1.68708E+00
 9.50000E+00    2.11187E+00
 1.00000E+01    2.63763E+00
 1.05000E+01    3.28813E+00
 1.10000E+01    4.06271E+00
 1.15000E+01    4.99021E+00
 1.20000E+01    6.07196E+00
 1.25000E+01    7.32538E+00
 1.30000E+01    8.75672E+00
 1.35000E+01    1.03553E+01
 1.40000E+01    1.21110E+01
 1.45000E+01    1.40244E+01
 1.50000E+01    1.61042E+01
 1.55000E+01    1.83683E+01
 1.60000E+01    2.08173E+01
 1.65000E+01    2.34462E+01
 1.70000E+01    2.62731E+01
 1.75000E+01    2.92821E+01
 1.80000E+01    3.24755E+01
 1.85000E+01    3.58573E+01
 1.90000E+01    3.94273E+01
 1.95000E+01    4.31889E+01
 2.00000E+01    4.71517E+01
