# n + Sm144 : (n,xp)    
# jendl4.0   N.Iwamoto                         EVAL-Nov09
# 
# # energies =    89
#   E(MeV)        xs(mb) 
 1.05000E-01    3.33068E-13
 1.10000E-01    3.54027E-13
 1.20000E-01    3.95947E-13
 1.30000E-01    4.37867E-13
 1.40000E-01    4.79787E-13
 1.50000E-01    5.21707E-13
 1.60000E-01    5.63627E-13
 1.70000E-01    6.05547E-13
 1.80000E-01    6.47467E-13
 1.90000E-01    6.89387E-13
 2.00000E-01    7.31306E-13
 2.25000E-01    8.36106E-13
 2.50000E-01    9.40906E-13
 2.75000E-01    1.04571E-12
 3.00000E-01    1.15051E-12
 4.00000E-01    1.56970E-12
 5.00000E-01    1.98890E-12
 6.00000E-01    2.40810E-12
 7.00000E-01    2.82730E-12
 8.00000E-01    3.47740E-12
 9.00000E-01    1.31640E-11
 1.00000E+00    1.16520E-10
 1.10000E+00    9.99920E-10
 1.20000E+00    6.95460E-09
 1.30000E+00    3.94930E-08
 1.40000E+00    1.89230E-07
 1.50000E+00    7.85010E-07
 1.60000E+00    2.87788E-06
 1.67166E+00    6.89724E-06
 1.70000E+00    8.44872E-06
 1.80000E+00    2.28342E-05
 1.82286E+00    2.81913E-05
 1.90000E+00    4.76975E-05
 2.00000E+00    1.02232E-04
 2.13486E+00    2.78891E-04
 2.18219E+00    4.01345E-04
 2.20625E+00    4.57858E-04
 2.25000E+00    5.05747E-04
 2.33989E+00    8.69202E-04
 2.44019E+00    1.58277E-03
 2.49502E+00    2.16739E-03
 2.50000E+00    2.21392E-03
 2.60592E+00    3.91587E-03
 2.66324E+00    4.78027E-03
 2.67934E+00    5.50718E-03
 2.70723E+00    6.01280E-03
 2.72601E+00    6.32940E-03
 2.74813E+00    6.69858E-03
 2.75000E+00    6.72287E-03
 2.81927E+00    9.27325E-03
 2.82365E+00    9.35547E-03
 2.84230E+00    9.82376E-03
 2.84552E+00    9.91774E-03
 2.84681E+00    9.95414E-03
 3.00000E+00    1.88015E-02
 3.50000E+00    7.92917E-02
 4.00000E+00    2.37484E-01
 4.50000E+00    5.55718E-01
 5.00000E+00    1.07115E+00
 5.50000E+00    1.77690E+00
 6.00000E+00    2.63158E+00
 6.50000E+00    3.57579E+00
 7.00000E+00    4.54622E+00
 7.50000E+00    5.49206E+00
 8.00000E+00    6.26236E+00
 8.50000E+00    7.14655E+00
 9.00000E+00    8.06124E+00
 9.50000E+00    9.12023E+00
 1.00000E+01    1.05991E+01
 1.05000E+01    1.31698E+01
 1.10000E+01    1.74217E+01
 1.15000E+01    2.28806E+01
 1.20000E+01    2.92407E+01
 1.25000E+01    3.55983E+01
 1.30000E+01    4.16301E+01
 1.35000E+01    4.66042E+01
 1.40000E+01    5.02014E+01
 1.45000E+01    5.23685E+01
 1.50000E+01    5.45124E+01
 1.55000E+01    5.68079E+01
 1.60000E+01    5.97825E+01
 1.65000E+01    6.29267E+01
 1.70000E+01    6.65552E+01
 1.75000E+01    7.08535E+01
 1.80000E+01    7.53544E+01
 1.85000E+01    8.02301E+01
 1.90000E+01    8.54311E+01
 1.95000E+01    9.09292E+01
 2.00000E+01    9.66438E+01
