# n + Sm144 : (n,xh)    
# jendl4.0   N.Iwamoto                         EVAL-Nov09
# 
# # energies =    89
#   E(MeV)        xs(mb) 
 1.05000E-01    0.00000E+00
 1.10000E-01    0.00000E+00
 1.20000E-01    0.00000E+00
 1.30000E-01    0.00000E+00
 1.40000E-01    0.00000E+00
 1.50000E-01    0.00000E+00
 1.60000E-01    0.00000E+00
 1.70000E-01    0.00000E+00
 1.80000E-01    0.00000E+00
 1.90000E-01    0.00000E+00
 2.00000E-01    0.00000E+00
 2.25000E-01    0.00000E+00
 2.50000E-01    0.00000E+00
 2.75000E-01    0.00000E+00
 3.00000E-01    0.00000E+00
 4.00000E-01    0.00000E+00
 5.00000E-01    0.00000E+00
 6.00000E-01    0.00000E+00
 7.00000E-01    0.00000E+00
 8.00000E-01    0.00000E+00
 9.00000E-01    0.00000E+00
 1.00000E+00    0.00000E+00
 1.10000E+00    0.00000E+00
 1.20000E+00    0.00000E+00
 1.30000E+00    0.00000E+00
 1.40000E+00    0.00000E+00
 1.50000E+00    0.00000E+00
 1.60000E+00    0.00000E+00
 1.67166E+00    0.00000E+00
 1.70000E+00    0.00000E+00
 1.80000E+00    0.00000E+00
 1.82286E+00    0.00000E+00
 1.90000E+00    0.00000E+00
 2.00000E+00    0.00000E+00
 2.13486E+00    0.00000E+00
 2.18219E+00    0.00000E+00
 2.20625E+00    0.00000E+00
 2.25000E+00    0.00000E+00
 2.33989E+00    0.00000E+00
 2.44019E+00    0.00000E+00
 2.49502E+00    0.00000E+00
 2.50000E+00    0.00000E+00
 2.60592E+00    0.00000E+00
 2.66324E+00    0.00000E+00
 2.67934E+00    0.00000E+00
 2.70723E+00    0.00000E+00
 2.72601E+00    0.00000E+00
 2.74813E+00    0.00000E+00
 2.75000E+00    0.00000E+00
 2.81927E+00    0.00000E+00
 2.82365E+00    0.00000E+00
 2.84230E+00    0.00000E+00
 2.84552E+00    0.00000E+00
 2.84681E+00    0.00000E+00
 3.00000E+00    3.30809E-31
 3.50000E+00    1.93388E-30
 4.00000E+00    3.53695E-30
 4.50000E+00    5.14121E-30
 5.00000E+00    1.21300E-28
 5.50000E+00    2.23570E-24
 6.00000E+00    2.01180E-20
 6.50000E+00    1.82310E-17
 7.00000E+00    3.39740E-15
 7.50000E+00    2.02200E-13
 8.00000E+00    5.10400E-12
 8.50000E+00    6.66210E-11
 9.00000E+00    5.18720E-10
 9.50000E+00    2.67970E-09
 1.00000E+01    9.94990E-09
 1.05000E+01    2.83270E-08
 1.10000E+01    6.54060E-08
 1.15000E+01    1.29910E-07
 1.20000E+01    2.39530E-07
 1.25000E+01    4.54360E-07
 1.30000E+01    9.78300E-07
 1.35000E+01    2.35230E-06
 1.40000E+01    5.89903E-06
 1.45000E+01    1.44371E-05
 1.50000E+01    3.34013E-05
 1.55000E+01    6.99420E-05
 1.60000E+01    1.47242E-04
 1.65000E+01    2.81654E-04
 1.70000E+01    5.15499E-04
 1.75000E+01    8.76242E-04
 1.80000E+01    1.48615E-03
 1.85000E+01    2.36271E-03
 1.90000E+01    3.64178E-03
 1.95000E+01    5.44981E-03
 2.00000E+01    7.91662E-03
