# n + Zr 93 : (n,tot)   
# jendl.ad   A.Ichihara, K.Shibata, S.Kunieda  EVAL-AUG13
# uncertainties: n
# # energies =    69
#   E(MeV)       xs(mb) 
 1.00000E-10    1.56533E+04
 5.00000E-09    4.26103E+03
 1.00000E-08    3.22637E+03
 1.50000E-08    2.71023E+03
 2.00000E-08    2.38388E+03
 2.50000E-08    2.15331E+03
 3.00000E-08    1.97914E+03
 3.50000E-08    1.81923E+03
 4.20000E-08    1.66335E+03
 5.00000E-08    1.53371E+03
 5.80000E-08    1.42506E+03
 6.70000E-08    1.31469E+03
 8.00000E-08    1.18881E+03
 1.00000E-07    1.03303E+03
 1.40000E-07    8.90060E+02
 1.80000E-07    7.93411E+02
 2.20000E-07    7.29588E+02
 2.50000E-07    6.86174E+02
 2.80000E-07    6.54960E+02
 3.00000E-07    6.32915E+02
 3.20000E-07    6.08375E+02
 3.50000E-07    5.74488E+02
 4.00000E-07    5.24214E+02
 5.00000E-07    4.67024E+02
 6.25000E-07    4.15546E+02
 7.80000E-07    3.82897E+02
 8.50000E-07    3.67479E+02
 9.10000E-07    3.56883E+02
 9.50000E-07    3.50720E+02
 9.72000E-07    3.46164E+02
 9.96000E-07    3.41608E+02
 1.02000E-06    3.37334E+02
 1.04500E-06    3.32894E+02
 1.07100E-06    3.28528E+02
 1.09700E-06    3.24458E+02
 1.12300E-06    3.20315E+02
 1.15000E-06    3.07874E+02
 1.30000E-06    2.86250E+02
 1.50000E-06    2.50756E+02
 2.10000E-06    2.14264E+02
 2.60000E-06    1.87691E+02
 3.30000E-06    1.64870E+02
 4.00000E-06    1.18160E+02
 9.87700E-06    7.45760E+01
 1.59680E-05    5.57149E+01
 2.77000E-05    4.96973E+01
 4.80520E-05    7.65450E+01
 7.55014E-05    2.10687E+04
 1.48728E-04    8.04412E+02
 3.67262E-04    8.24824E+02
 9.06898E-04    8.56780E+02
 1.42510E-03    5.93445E+02
 2.23945E-03    5.40020E+02
 3.51910E-03    4.14014E+02
 5.53000E-03    3.03477E+02
 9.11800E-03    2.10957E+02
 1.50300E-02    1.42264E+02
 2.47800E-02    9.43069E+01
 4.08500E-02    6.27357E+01
 6.73400E-02    4.35180E+01
 1.11000E-01    3.23561E+01
 1.83000E-01    2.53735E+01
 3.02000E-01    1.95353E+01
 5.00000E-01    1.72064E+01
 8.21000E-01    1.83940E+01
 1.35300E+00    1.86844E+01
 2.23100E+00    9.11514E+00
 3.67900E+00    1.87105E+00
 6.06500E+00    3.38428E+02
