# n + W 183 : (n,n'13)  
# jendl4.0   N.Iwamoto                         EVAL-Feb10
# uncertainties: n
# # energies =    74
#   E(MeV)       xs(mb) 
 5.54138E-01    0.00000E+00
 5.98622E-01    1.33135E+00
 6.00000E-01    1.37217E+00
 6.26194E-01    2.47444E+00
 6.34680E-01    2.84321E+00
 7.00000E-01    6.91668E+00
 7.43999E-01    1.04534E+01
 7.76296E-01    1.33614E+01
 8.00000E-01    1.56568E+01
 8.55290E-01    2.09906E+01
 8.75802E-01    2.30927E+01
 9.00000E-01    2.56089E+01
 9.08481E-01    2.65038E+01
 9.09507E-01    2.65089E+01
 9.18034E-01    2.69403E+01
 9.31357E-01    2.77290E+01
 9.39803E-01    2.84101E+01
 9.65293E-01    3.04150E+01
 9.65294E-01    3.04151E+01
 9.79350E-01    3.14103E+01
 1.00000E+00    3.29025E+01
 1.00760E+00    3.34347E+01
 1.03206E+00    3.48752E+01
 1.05874E+00    3.64273E+01
 1.06836E+00    3.67689E+01
 1.07791E+00    3.72807E+01
 1.10000E+00    3.83101E+01
 1.20000E+00    4.26598E+01
 1.30000E+00    4.35916E+01
 1.40000E+00    4.36567E+01
 1.50000E+00    4.29384E+01
 1.60000E+00    4.12797E+01
 1.70000E+00    3.87663E+01
 1.80000E+00    3.59439E+01
 1.90000E+00    3.29576E+01
 2.00000E+00    2.99793E+01
 2.25000E+00    2.35710E+01
 2.50000E+00    1.70480E+01
 2.75000E+00    1.24903E+01
 3.00000E+00    9.14532E+00
 3.50000E+00    4.67183E+00
 4.00000E+00    2.45345E+00
 4.50000E+00    1.39953E+00
 5.00000E+00    9.02640E-01
 5.50000E+00    6.59699E-01
 6.00000E+00    5.31849E-01
 6.50000E+00    4.55657E-01
 7.00000E+00    4.03656E-01
 7.50000E+00    3.63986E-01
 8.00000E+00    3.31790E-01
 8.50000E+00    3.04647E-01
 9.00000E+00    2.81192E-01
 9.50000E+00    2.60494E-01
 1.00000E+01    2.41929E-01
 1.05000E+01    2.25068E-01
 1.10000E+01    2.09634E-01
 1.15000E+01    1.95467E-01
 1.20000E+01    1.82472E-01
 1.25000E+01    1.70607E-01
 1.30000E+01    1.59828E-01
 1.35000E+01    1.50070E-01
 1.40000E+01    1.41247E-01
 1.45000E+01    1.33256E-01
 1.50000E+01    1.25987E-01
 1.55000E+01    1.19335E-01
 1.60000E+01    1.13199E-01
 1.65000E+01    1.07495E-01
 1.70000E+01    1.02150E-01
 1.75000E+01    9.71065E-02
 1.80000E+01    9.23211E-02
 1.85000E+01    8.77757E-02
 1.90000E+01    8.34634E-02
 1.95000E+01    7.93839E-02
 2.00000E+01    7.55448E-02
