# n + W 183 : (n,n'11)  
# jendl4.0   N.Iwamoto                         EVAL-Feb10
# uncertainties: n
# # energies =    77
#   E(MeV)       xs(mb) 
 4.89685E-01    0.00000E+00
 5.00000E-01    4.69853E-03
 5.35939E-01    3.18480E-02
 5.54138E-01    5.65832E-02
 5.98622E-01    1.44303E-01
 6.00000E-01    1.46595E-01
 6.26194E-01    2.17497E-01
 6.34680E-01    2.32809E-01
 7.00000E-01    4.58524E-01
 7.43999E-01    6.70768E-01
 7.76296E-01    8.36681E-01
 8.00000E-01    9.68935E-01
 8.55290E-01    1.33665E+00
 8.75802E-01    1.49312E+00
 9.00000E-01    1.67875E+00
 9.08481E-01    1.74212E+00
 9.09507E-01    1.74896E+00
 9.18034E-01    1.80928E+00
 9.31357E-01    1.90535E+00
 9.39803E-01    1.96887E+00
 9.65293E-01    2.17181E+00
 9.65294E-01    2.17179E+00
 9.79350E-01    2.28564E+00
 1.00000E+00    2.46059E+00
 1.00760E+00    2.52718E+00
 1.03206E+00    2.73873E+00
 1.05874E+00    2.98328E+00
 1.06836E+00    3.07007E+00
 1.07791E+00    3.15947E+00
 1.10000E+00    3.36319E+00
 1.20000E+00    4.08094E+00
 1.30000E+00    4.63826E+00
 1.40000E+00    5.12043E+00
 1.50000E+00    5.49666E+00
 1.60000E+00    5.66423E+00
 1.70000E+00    5.72880E+00
 1.80000E+00    5.70108E+00
 1.90000E+00    5.59764E+00
 2.00000E+00    5.43670E+00
 2.25000E+00    4.97348E+00
 2.50000E+00    4.12461E+00
 2.75000E+00    3.40862E+00
 3.00000E+00    3.19333E+00
 3.50000E+00    2.03991E+00
 4.00000E+00    1.30276E+00
 4.50000E+00    8.75143E-01
 5.00000E+00    6.37740E-01
 5.50000E+00    5.03677E-01
 6.00000E+00    4.23204E-01
 6.50000E+00    3.69541E-01
 7.00000E+00    3.29953E-01
 7.50000E+00    2.98429E-01
 8.00000E+00    2.72316E-01
 8.50000E+00    2.50100E-01
 9.00000E+00    2.30830E-01
 9.50000E+00    2.13809E-01
 1.00000E+01    1.98531E-01
 1.05000E+01    1.84648E-01
 1.10000E+01    1.71945E-01
 1.15000E+01    1.60287E-01
 1.20000E+01    1.49600E-01
 1.25000E+01    1.39849E-01
 1.30000E+01    1.30997E-01
 1.35000E+01    1.22988E-01
 1.40000E+01    1.15750E-01
 1.45000E+01    1.09195E-01
 1.50000E+01    1.03233E-01
 1.55000E+01    9.77759E-02
 1.60000E+01    9.27411E-02
 1.65000E+01    8.80598E-02
 1.70000E+01    8.36723E-02
 1.75000E+01    7.95318E-02
 1.80000E+01    7.56025E-02
 1.85000E+01    7.18705E-02
 1.90000E+01    6.83306E-02
 1.95000E+01    6.49831E-02
 2.00000E+01    6.18347E-02
