# n + W 183 : (n,n'10)  
# jendl4.0   N.Iwamoto                         EVAL-Feb10
# uncertainties: n
# # energies =    78
#   E(MeV)       xs(mb) 
 4.78021E-01    0.00000E+00
 4.89685E-01    1.72924E-01
 5.00000E-01    2.70318E-01
 5.35939E-01    7.09952E-01
 5.54138E-01    1.00063E+00
 5.98622E-01    1.85285E+00
 6.00000E-01    1.87502E+00
 6.26194E-01    2.48756E+00
 6.34680E-01    2.64479E+00
 7.00000E-01    4.36658E+00
 7.43999E-01    5.73002E+00
 7.76296E-01    6.71039E+00
 8.00000E-01    7.44558E+00
 8.55290E-01    9.31080E+00
 8.75802E-01    1.00515E+01
 9.00000E-01    1.07752E+01
 9.08481E-01    1.10299E+01
 9.09507E-01    1.10202E+01
 9.18034E-01    1.10942E+01
 9.31357E-01    1.12610E+01
 9.39803E-01    1.14379E+01
 9.65293E-01    1.20510E+01
 9.65294E-01    1.20511E+01
 9.79350E-01    1.23991E+01
 1.00000E+00    1.29316E+01
 1.00760E+00    1.31245E+01
 1.03206E+00    1.35899E+01
 1.05874E+00    1.42262E+01
 1.06836E+00    1.43715E+01
 1.07791E+00    1.45769E+01
 1.10000E+00    1.49466E+01
 1.20000E+00    1.61621E+01
 1.30000E+00    1.69471E+01
 1.40000E+00    1.75063E+01
 1.50000E+00    1.77427E+01
 1.60000E+00    1.74853E+01
 1.70000E+00    1.70246E+01
 1.80000E+00    1.63918E+01
 1.90000E+00    1.56205E+01
 2.00000E+00    1.47642E+01
 2.25000E+00    1.27212E+01
 2.50000E+00    1.00711E+01
 2.75000E+00    8.04606E+00
 3.00000E+00    6.33519E+00
 3.50000E+00    3.91923E+00
 4.00000E+00    2.62953E+00
 4.50000E+00    2.00884E+00
 5.00000E+00    1.73350E+00
 5.50000E+00    1.61537E+00
 6.00000E+00    1.55927E+00
 6.50000E+00    1.51093E+00
 7.00000E+00    1.45036E+00
 7.50000E+00    1.37557E+00
 8.00000E+00    1.29844E+00
 8.50000E+00    1.22892E+00
 9.00000E+00    1.17143E+00
 9.50000E+00    1.12695E+00
 1.00000E+01    1.09241E+00
 1.05000E+01    1.06552E+00
 1.10000E+01    1.04367E+00
 1.15000E+01    1.02496E+00
 1.20000E+01    1.00802E+00
 1.25000E+01    9.92007E-01
 1.30000E+01    9.76635E-01
 1.35000E+01    9.62132E-01
 1.40000E+01    9.49037E-01
 1.45000E+01    9.37944E-01
 1.50000E+01    9.29328E-01
 1.55000E+01    9.23532E-01
 1.60000E+01    9.20814E-01
 1.65000E+01    9.21319E-01
 1.70000E+01    9.24937E-01
 1.75000E+01    9.31210E-01
 1.80000E+01    9.39390E-01
 1.85000E+01    9.48687E-01
 1.90000E+01    9.58438E-01
 1.95000E+01    9.68113E-01
 2.00000E+01    9.77146E-01
