# n + W 183 : (n,n'03)  
# jendl4.0   N.Iwamoto                         EVAL-Feb10
# uncertainties: n
# # energies =    90
#   E(MeV)       xs(mb) 
 2.08153E-01    0.00000E+00
 2.09957E-01    1.96025E+01
 2.25000E-01    4.29979E+01
 2.50000E-01    6.34027E+01
 2.75000E-01    7.95079E+01
 2.93332E-01    9.02539E+01
 3.00000E-01    8.77596E+01
 3.10648E-01    9.10074E+01
 3.11199E-01    9.11834E+01
 4.00000E-01    1.27097E+02
 4.14367E-01    1.32442E+02
 4.55569E-01    1.39842E+02
 4.78021E-01    1.41299E+02
 4.89685E-01    1.43810E+02
 5.00000E-01    1.46234E+02
 5.35939E-01    1.55570E+02
 5.54138E-01    1.58189E+02
 5.98622E-01    1.68680E+02
 6.00000E-01    1.68999E+02
 6.26194E-01    1.73937E+02
 6.34680E-01    1.74910E+02
 7.00000E-01    1.82684E+02
 7.43999E-01    1.88486E+02
 7.76296E-01    1.92705E+02
 8.00000E-01    1.95655E+02
 8.55290E-01    2.01104E+02
 8.75802E-01    2.01985E+02
 9.00000E-01    2.01641E+02
 9.08481E-01    2.01739E+02
 9.09507E-01    2.01069E+02
 9.18034E-01    1.98174E+02
 9.31357E-01    1.94687E+02
 9.39803E-01    1.93698E+02
 9.65293E-01    1.91045E+02
 9.65294E-01    1.91045E+02
 9.79350E-01    1.89482E+02
 1.00000E+00    1.88185E+02
 1.00760E+00    1.87689E+02
 1.03206E+00    1.85171E+02
 1.05874E+00    1.82026E+02
 1.06836E+00    1.80234E+02
 1.07791E+00    1.79252E+02
 1.10000E+00    1.76671E+02
 1.20000E+00    1.67770E+02
 1.30000E+00    1.54593E+02
 1.40000E+00    1.41110E+02
 1.50000E+00    1.27671E+02
 1.60000E+00    1.15037E+02
 1.70000E+00    1.03379E+02
 1.80000E+00    9.26440E+01
 1.90000E+00    8.28097E+01
 2.00000E+00    7.39984E+01
 2.25000E+00    5.70327E+01
 2.50000E+00    4.27640E+01
 2.75000E+00    3.35908E+01
 3.00000E+00    2.67015E+01
 3.50000E+00    1.90117E+01
 4.00000E+00    1.53191E+01
 4.50000E+00    1.35551E+01
 5.00000E+00    1.27186E+01
 5.50000E+00    1.23068E+01
 6.00000E+00    1.20482E+01
 6.50000E+00    1.18042E+01
 7.00000E+00    1.15187E+01
 7.50000E+00    1.11754E+01
 8.00000E+00    1.08001E+01
 8.50000E+00    1.04236E+01
 9.00000E+00    1.00720E+01
 9.50000E+00    9.75911E+00
 1.00000E+01    9.48154E+00
 1.05000E+01    9.23420E+00
 1.10000E+01    9.00831E+00
 1.15000E+01    8.79763E+00
 1.20000E+01    8.59834E+00
 1.25000E+01    8.40869E+00
 1.30000E+01    8.22887E+00
 1.35000E+01    8.06115E+00
 1.40000E+01    7.90970E+00
 1.45000E+01    7.77958E+00
 1.50000E+01    7.67498E+00
 1.55000E+01    7.59804E+00
 1.60000E+01    7.54841E+00
 1.65000E+01    7.52395E+00
 1.70000E+01    7.52149E+00
 1.75000E+01    7.53734E+00
 1.80000E+01    7.56752E+00
 1.85000E+01    7.60770E+00
 1.90000E+01    7.65329E+00
 1.95000E+01    7.69955E+00
 2.00000E+01    7.74207E+00
