# n + Cd113 : (n,xa)    
# jendl4.0   S.Kunieda, A.Ichihara, K.Shibata+ EVAL-FEB22
# 
# # energies =    86
#   E(MeV)        xs(mb) 
 2.65945E-01    1.28522E-05
 3.00000E-01    1.44800E-05
 3.01157E-01    1.44282E-05
 3.19005E-01    1.36286E-05
 3.50000E-01    1.22400E-05
 4.00000E-01    1.22500E-05
 4.50000E-01    1.31600E-05
 4.62485E-01    1.35121E-05
 5.00000E-01    1.45700E-05
 5.26996E-01    1.55797E-05
 5.34735E-01    1.58691E-05
 5.50000E-01    1.64400E-05
 5.89359E-01    1.79514E-05
 6.00000E-01    1.83600E-05
 6.43760E-01    2.03117E-05
 6.50000E-01    2.05900E-05
 6.86650E-01    2.25031E-05
 7.00000E-01    2.32000E-05
 7.14749E-01    2.39138E-05
 7.50000E-01    2.56200E-05
 7.66790E-01    2.60968E-05
 8.00000E-01    2.70400E-05
 8.23694E-01    2.82579E-05
 8.50000E-01    2.96100E-05
 8.62941E-01    3.02648E-05
 8.86348E-01    3.14492E-05
 8.91494E-01    3.17096E-05
 9.00000E-01    3.21400E-05
 9.05417E-01    3.23155E-05
 9.48095E-01    3.36983E-05
 9.50000E-01    3.37600E-05
 9.68576E-01    3.43879E-05
 9.97271E-01    3.53577E-05
 1.00000E+00    3.54500E-05
 1.01620E+00    3.61295E-05
 1.04294E+00    3.72511E-05
 1.04657E+00    3.74035E-05
 1.05686E+00    3.78352E-05
 1.05928E+00    3.79368E-05
 1.13615E+00    4.11615E-05
 1.18045E+00    4.30200E-05
 1.18731E+00    4.33078E-05
 1.20000E+00    4.38400E-05
 1.20532E+00    4.43907E-05
 1.20608E+00    4.44689E-05
 1.22515E+00    4.64415E-05
 1.27943E+00    5.20569E-05
 1.29123E+00    5.32780E-05
 1.37376E+00    6.18159E-05
 1.40000E+00    6.45300E-05
 1.60000E+00    1.01000E-04
 1.80000E+00    1.56300E-04
 2.00000E+00    2.35500E-04
 2.20000E+00    3.45400E-04
 2.40000E+00    4.92700E-04
 2.60000E+00    6.84400E-04
 2.80000E+00    9.29600E-04
 3.00000E+00    1.23600E-03
 3.25000E+00    1.73500E-03
 3.50000E+00    2.31600E-03
 3.75000E+00    3.06800E-03
 4.00000E+00    3.90800E-03
 4.25000E+00    4.93100E-03
 4.50000E+00    6.02500E-03
 4.75000E+00    7.29500E-03
 5.00000E+00    8.60300E-03
 5.50000E+00    1.16100E-02
 6.00000E+00    1.51400E-02
 6.50000E+00    1.92000E-02
 7.00000E+00    2.55600E-02
 7.50000E+00    3.62300E-02
 8.00000E+00    5.47200E-02
 8.50000E+00    8.65100E-02
 9.00000E+00    1.39900E-01
 9.50000E+00    2.26903E-01
 1.00000E+01    3.63416E-01
 1.10000E+01    8.65679E-01
 1.20000E+01    1.81546E+00
 1.30000E+01    3.33629E+00
 1.40000E+01    5.44027E+00
 1.50000E+01    8.02840E+00
 1.60000E+01    1.09308E+01
 1.70000E+01    1.39790E+01
 1.80000E+01    1.70030E+01
 1.90000E+01    1.99150E+01
 2.00000E+01    2.26290E+01
