# n + Cd113 : (n,xp)    
# jendl4.0   S.Kunieda, A.Ichihara, K.Shibata+ EVAL-FEB22
# 
# # energies =    86
#   E(MeV)        xs(mb) 
 2.65945E-01    0.00000E+00
 3.00000E-01    0.00000E+00
 3.01157E-01    0.00000E+00
 3.19005E-01    0.00000E+00
 3.50000E-01    0.00000E+00
 4.00000E-01    0.00000E+00
 4.50000E-01    0.00000E+00
 4.62485E-01    0.00000E+00
 5.00000E-01    0.00000E+00
 5.26996E-01    0.00000E+00
 5.34735E-01    0.00000E+00
 5.50000E-01    0.00000E+00
 5.89359E-01    0.00000E+00
 6.00000E-01    0.00000E+00
 6.43760E-01    0.00000E+00
 6.50000E-01    0.00000E+00
 6.86650E-01    0.00000E+00
 7.00000E-01    0.00000E+00
 7.14749E-01    0.00000E+00
 7.50000E-01    0.00000E+00
 7.66790E-01    0.00000E+00
 8.00000E-01    0.00000E+00
 8.23694E-01    0.00000E+00
 8.50000E-01    0.00000E+00
 8.62941E-01    0.00000E+00
 8.86348E-01    0.00000E+00
 8.91494E-01    0.00000E+00
 9.00000E-01    0.00000E+00
 9.05417E-01    0.00000E+00
 9.48095E-01    0.00000E+00
 9.50000E-01    0.00000E+00
 9.68576E-01    0.00000E+00
 9.97271E-01    0.00000E+00
 1.00000E+00    0.00000E+00
 1.01620E+00    0.00000E+00
 1.04294E+00    0.00000E+00
 1.04657E+00    0.00000E+00
 1.05686E+00    0.00000E+00
 1.05928E+00    0.00000E+00
 1.13615E+00    0.00000E+00
 1.18045E+00    0.00000E+00
 1.18731E+00    0.00000E+00
 1.20000E+00    0.00000E+00
 1.20532E+00    0.00000E+00
 1.20608E+00    0.00000E+00
 1.22515E+00    0.00000E+00
 1.27943E+00    1.63303E-23
 1.29123E+00    2.19762E-23
 1.37376E+00    6.14512E-23
 1.40000E+00    7.40000E-23
 1.60000E+00    1.83400E-17
 1.80000E+00    1.45200E-14
 2.00000E+00    1.38400E-12
 2.20000E+00    4.55600E-11
 2.40000E+00    8.37200E-10
 2.60000E+00    1.07300E-08
 2.80000E+00    1.03700E-07
 3.00000E+00    8.03000E-07
 3.25000E+00    7.57900E-06
 3.50000E+00    4.04100E-05
 3.75000E+00    1.59500E-04
 4.00000E+00    4.45000E-04
 4.25000E+00    1.18100E-03
 4.50000E+00    2.41100E-03
 4.75000E+00    4.91700E-03
 5.00000E+00    8.02100E-03
 5.50000E+00    1.89300E-02
 6.00000E+00    3.46900E-02
 6.50000E+00    5.33500E-02
 7.00000E+00    7.53400E-02
 7.50000E+00    1.09100E-01
 8.00000E+00    1.73400E-01
 8.50000E+00    2.98500E-01
 9.00000E+00    5.21800E-01
 9.50000E+00    8.82500E-01
 1.00000E+01    1.41700E+00
 1.10000E+01    3.12900E+00
 1.20000E+01    5.85001E+00
 1.30000E+01    9.84913E+00
 1.40000E+01    1.51755E+01
 1.50000E+01    2.18510E+01
 1.60000E+01    2.98130E+01
 1.70000E+01    3.89400E+01
 1.80000E+01    4.92100E+01
 1.90000E+01    6.05500E+01
 2.00000E+01    7.29400E+01
