# n + Eu154 : (n,n'26)  
# jendl4.0   N.Iwamoto                         EVAL-Nov09
# uncertainties: n
# # energies =    74
#   E(MeV)       xs(mb) 
 2.20918E-01    0.00000E+00
 2.25000E-01    2.31089E+01
 2.31301E-01    3.35490E+01
 2.32394E-01    3.48187E+01
 2.36821E-01    3.92059E+01
 2.40857E-01    4.23579E+01
 2.50000E-01    4.65641E+01
 2.51054E-01    4.70277E+01
 2.53475E-01    4.79960E+01
 2.56882E-01    4.91906E+01
 2.59882E-01    5.02409E+01
 2.74639E-01    5.42501E+01
 2.75000E-01    5.43342E+01
 2.78513E-01    5.51271E+01
 2.80373E-01    5.55305E+01
 2.80866E-01    5.55717E+01
 2.81210E-01    5.56253E+01
 2.83525E-01    5.60231E+01
 3.00000E-01    5.77113E+01
 4.00000E-01    5.26728E+01
 5.00000E-01    4.19839E+01
 6.00000E-01    3.35909E+01
 7.00000E-01    2.74334E+01
 8.00000E-01    2.30470E+01
 9.00000E-01    1.94694E+01
 1.00000E+00    1.64393E+01
 1.10000E+00    1.40959E+01
 1.20000E+00    1.22013E+01
 1.30000E+00    1.04784E+01
 1.40000E+00    8.96937E+00
 1.50000E+00    7.67121E+00
 1.60000E+00    6.55628E+00
 1.70000E+00    5.60079E+00
 1.80000E+00    4.78360E+00
 1.90000E+00    4.08593E+00
 2.00000E+00    3.49118E+00
 2.25000E+00    2.38919E+00
 2.50000E+00    1.60801E+00
 2.75000E+00    1.10630E+00
 3.00000E+00    7.92591E-01
 3.50000E+00    3.90702E-01
 4.00000E+00    1.99922E-01
 4.50000E+00    1.09747E-01
 5.00000E+00    6.75534E-02
 5.50000E+00    4.74672E-02
 6.00000E+00    3.75144E-02
 6.50000E+00    3.21187E-02
 7.00000E+00    2.87231E-02
 7.50000E+00    2.62186E-02
 8.00000E+00    2.41598E-02
 8.50000E+00    2.23809E-02
 9.00000E+00    2.08208E-02
 9.50000E+00    1.94578E-02
 1.00000E+01    1.82676E-02
 1.05000E+01    1.72317E-02
 1.10000E+01    1.63162E-02
 1.15000E+01    1.54973E-02
 1.20000E+01    1.47501E-02
 1.25000E+01    1.40534E-02
 1.30000E+01    1.33922E-02
 1.35000E+01    1.27621E-02
 1.40000E+01    1.21611E-02
 1.45000E+01    1.15902E-02
 1.50000E+01    1.10521E-02
 1.55000E+01    1.05661E-02
 1.60000E+01    1.01151E-02
 1.65000E+01    9.69663E-03
 1.70000E+01    9.30684E-03
 1.75000E+01    8.94319E-03
 1.80000E+01    8.60040E-03
 1.85000E+01    8.27443E-03
 1.90000E+01    7.96071E-03
 1.95000E+01    7.65726E-03
 2.00000E+01    7.36313E-03
