# n + Ho165 : (n,xn)    
# jendl.ad   N.Iwamoto                         EVAL-Apr14
# 
# # energies =   103
#   E(MeV)        xs(mb) 
 9.52792E-02    0.00000E+00
 1.00000E-01    1.52250E+02
 1.05000E-01    1.91271E+02
 1.10000E-01    2.30301E+02
 1.20000E-01    2.80064E+02
 1.30000E-01    3.19396E+02
 1.40000E-01    3.52934E+02
 1.50000E-01    3.82518E+02
 1.60000E-01    4.09302E+02
 1.70000E-01    4.33760E+02
 1.80000E-01    4.56758E+02
 1.90000E-01    4.78634E+02
 2.00000E-01    4.98936E+02
 2.11087E-01    5.19840E+02
 2.25000E-01    5.78688E+02
 2.50000E-01    6.48366E+02
 2.75000E-01    7.13569E+02
 3.00000E-01    7.71356E+02
 3.47009E-01    8.71339E+02
 3.63887E-01    9.12467E+02
 4.00000E-01    1.02961E+03
 4.22110E-01    1.08502E+03
 4.32014E-01    1.15265E+03
 4.52006E-01    1.22787E+03
 4.52007E-01    1.22787E+03
 4.94050E-01    1.37517E+03
 5.00000E-01    1.42283E+03
 5.02454E-01    1.43464E+03
 5.18628E-01    1.49995E+03
 5.42307E-01    1.58965E+03
 5.70266E-01    1.70002E+03
 5.93407E-01    1.79603E+03
 6.00000E-01    1.83305E+03
 6.05279E-01    1.85401E+03
 6.42405E-01    1.99891E+03
 6.77116E-01    2.12114E+03
 6.85366E-01    2.14244E+03
 6.93012E-01    2.16175E+03
 7.00000E-01    2.18456E+03
 7.06293E-01    2.20097E+03
 7.08104E-01    2.20830E+03
 7.19705E-01    2.24429E+03
 7.35370E-01    2.29200E+03
 7.48550E-01    2.33371E+03
 7.95636E-01    2.44411E+03
 8.00000E-01    2.45307E+03
 8.07207E-01    2.46663E+03
 8.24814E-01    2.50437E+03
 8.25126E-01    2.50525E+03
 8.32259E-01    2.52212E+03
 8.46948E-01    2.55105E+03
 8.68580E-01    2.58947E+03
 8.76226E-01    2.60108E+03
 9.00000E-01    2.63466E+03
 1.00000E+00    2.75930E+03
 1.10000E+00    2.84166E+03
 1.20000E+00    2.89662E+03
 1.30000E+00    2.93281E+03
 1.40000E+00    2.95664E+03
 1.50000E+00    2.97196E+03
 1.60000E+00    2.98173E+03
 1.70000E+00    2.98788E+03
 1.80000E+00    2.99141E+03
 1.90000E+00    2.99319E+03
 2.00000E+00    2.99379E+03
 2.25000E+00    2.98993E+03
 2.50000E+00    2.98730E+03
 2.75000E+00    2.98151E+03
 3.00000E+00    2.97880E+03
 3.50000E+00    2.96376E+03
 4.00000E+00    2.93431E+03
 4.50000E+00    2.89684E+03
 5.00000E+00    2.86246E+03
 5.50000E+00    2.83117E+03
 6.00000E+00    2.80144E+03
 6.50000E+00    2.77051E+03
 7.00000E+00    2.73966E+03
 7.50000E+00    2.71005E+03
 8.00000E+00    2.68299E+03
 8.50000E+00    2.74033E+03
 9.00000E+00    3.04405E+03
 9.50000E+00    3.35422E+03
 1.00000E+01    3.57644E+03
 1.05000E+01    3.71885E+03
 1.10000E+01    3.80693E+03
 1.15000E+01    3.86005E+03
 1.20000E+01    3.89081E+03
 1.25000E+01    3.90684E+03
 1.30000E+01    3.91277E+03
 1.35000E+01    3.91210E+03
 1.40000E+01    3.90708E+03
 1.45000E+01    3.89924E+03
 1.50000E+01    3.88986E+03
 1.55000E+01    3.89355E+03
 1.60000E+01    3.95467E+03
 1.65000E+01    4.09852E+03
 1.70000E+01    4.30635E+03
 1.75000E+01    4.54036E+03
 1.80000E+01    4.76991E+03
 1.85000E+01    4.97777E+03
 1.90000E+01    5.15743E+03
 1.95000E+01    5.29951E+03
 2.00000E+01    5.42447E+03
