# n + Mo 96 : (n,non)   
# jendl4.0   K.Shibata, A.Ichihara, S.Kunieda+ EVAL-MAR09
# uncertainties: n
# # energies =    90
#   E(MeV)       xs(mb) 
 1.90000E-02    0.00000E+00
 1.90000E-02    1.49750E+02
 2.00000E-02    1.40900E+02
 3.00000E-02    1.04600E+02
 4.00000E-02    8.50400E+01
 5.00000E-02    7.31500E+01
 6.00000E-02    6.52800E+01
 7.00000E-02    6.00700E+01
 8.00000E-02    5.63300E+01
 9.00000E-02    5.33700E+01
 1.00000E-01    5.08900E+01
 2.00000E-01    4.30900E+01
 3.00000E-01    4.19000E+01
 4.00000E-01    4.23900E+01
 5.00000E-01    4.36100E+01
 6.00000E-01    4.53400E+01
 7.00000E-01    4.72900E+01
 7.86430E-01    3.91829E+01
 8.00000E-01    1.76510E+02
 9.00000E-01    6.62630E+02
 1.00000E+00    8.85530E+02
 1.16001E+00    9.46751E+02
 1.34399E+00    1.12720E+03
 1.50000E+00    1.39783E+03
 1.51355E+00    1.38686E+03
 1.64303E+00    1.37722E+03
 1.64534E+00    1.37900E+03
 1.88925E+00    1.67578E+03
 1.99926E+00    1.86906E+03
 2.00000E+00    1.87589E+03
 2.11763E+00    1.82647E+03
 2.24282E+00    1.82790E+03
 2.25810E+00    1.83170E+03
 2.42403E+00    1.95998E+03
 2.42974E+00    1.96584E+03
 2.45176E+00    1.98845E+03
 2.46416E+00    2.00838E+03
 2.46647E+00    2.01236E+03
 2.50000E+00    2.07013E+03
 2.50204E+00    2.06816E+03
 2.50714E+00    2.06366E+03
 2.52761E+00    2.04871E+03
 2.56712E+00    2.02651E+03
 2.62157E+00    2.00438E+03
 2.63886E+00    2.00018E+03
 2.65214E+00    1.99821E+03
 2.72840E+00    1.99428E+03
 2.76275E+00    2.00112E+03
 2.76317E+00    2.00122E+03
 2.76437E+00    2.00164E+03
 2.77084E+00    2.00511E+03
 2.78415E+00    2.01353E+03
 2.79057E+00    2.01761E+03
 2.81616E+00    2.03389E+03
 2.81964E+00    2.03699E+03
 2.84807E+00    2.06556E+03
 2.85818E+00    2.07684E+03
 3.00000E+00    2.23948E+03
 3.50000E+00    2.18478E+03
 4.00000E+00    2.12644E+03
 4.50000E+00    2.08778E+03
 5.00000E+00    2.06725E+03
 5.50000E+00    2.06249E+03
 6.00000E+00    2.06219E+03
 6.50000E+00    2.06012E+03
 7.00000E+00    2.05322E+03
 7.14739E+00    2.05034E+03
 7.50000E+00    2.04344E+03
 8.00000E+00    2.03144E+03
 8.47173E+00    2.01919E+03
 8.50000E+00    2.01845E+03
 9.00000E+00    2.00593E+03
 9.25060E+00    1.96768E+03
 9.39535E+00    1.98304E+03
 9.40234E+00    1.98379E+03
 9.50000E+00    1.99415E+03
 1.00000E+01    1.98363E+03
 1.10000E+01    1.96545E+03
 1.20000E+01    1.94901E+03
 1.30000E+01    1.93363E+03
 1.40000E+01    1.92019E+03
 1.46000E+01    1.91260E+03
 1.50000E+01    1.90763E+03
 1.57254E+01    1.89984E+03
 1.60000E+01    1.89689E+03
 1.66972E+01    1.88984E+03
 1.70000E+01    1.88678E+03
 1.80000E+01    1.87717E+03
 1.90000E+01    1.86562E+03
 2.00000E+01    1.85170E+03
