# n + Mo 96 : (n,xn)    
# jendl4.0   K.Shibata, A.Ichihara, S.Kunieda+ EVAL-MAR09
# 
# # energies =    64
#   E(MeV)        xs(mb) 
 7.86430E-01    0.00000E+00
 8.00000E-01    1.38600E+02
 9.00000E-01    6.37400E+02
 1.00000E+00    8.62500E+02
 1.16001E+00    9.23145E+02
 1.34399E+00    1.10294E+03
 1.50000E+00    1.37300E+03
 1.51355E+00    1.36228E+03
 1.64303E+00    1.35505E+03
 1.64534E+00    1.35687E+03
 1.88925E+00    1.65819E+03
 1.99926E+00    1.85351E+03
 2.00000E+00    1.86036E+03
 2.11763E+00    1.81181E+03
 2.24282E+00    1.81417E+03
 2.25810E+00    1.81808E+03
 2.42403E+00    1.94758E+03
 2.45176E+00    1.97626E+03
 2.46416E+00    1.99629E+03
 2.46647E+00    2.00028E+03
 2.50000E+00    2.05830E+03
 2.50204E+00    2.05634E+03
 2.50714E+00    2.05189E+03
 2.52761E+00    2.03708E+03
 2.56712E+00    2.01517E+03
 2.62157E+00    1.99344E+03
 2.63886E+00    1.98936E+03
 2.65214E+00    1.98750E+03
 2.72840E+00    1.98412E+03
 2.76275E+00    1.99122E+03
 2.76317E+00    1.99132E+03
 2.76437E+00    1.99175E+03
 2.77084E+00    1.99526E+03
 2.78415E+00    2.00377E+03
 2.81616E+00    2.02438E+03
 2.81964E+00    2.02750E+03
 2.84807E+00    2.05628E+03
 2.85818E+00    2.06764E+03
 3.00000E+00    2.23130E+03
 3.50000E+00    2.17797E+03
 4.00000E+00    2.12040E+03
 4.50000E+00    2.08273E+03
 5.00000E+00    2.06300E+03
 5.50000E+00    2.05889E+03
 6.00000E+00    2.05917E+03
 6.50000E+00    2.05737E+03
 7.00000E+00    2.05072E+03
 7.50000E+00    2.04090E+03
 8.00000E+00    2.02876E+03
 8.50000E+00    2.01547E+03
 9.00000E+00    2.00235E+03
 9.50000E+00    2.05432E+03
 1.00000E+01    2.27600E+03
 1.10000E+01    2.75945E+03
 1.20000E+01    3.06800E+03
 1.30000E+01    3.21434E+03
 1.40000E+01    3.27325E+03
 1.46000E+01    3.28427E+03
 1.50000E+01    3.28564E+03
 1.60000E+01    3.28184E+03
 1.70000E+01    3.26696E+03
 1.80000E+01    3.26311E+03
 1.90000E+01    3.29950E+03
 2.00000E+01    3.39761E+03
