# n + Au197 : (n,xa)    
# jendl4.0   N.Iwamoto                         EVAL-Feb10
# 
# # energies =    94
#   E(MeV)        xs(mb) 
 7.77471E-02    5.06360E-08
 8.00000E-02    4.90700E-08
 9.00000E-02    4.75320E-08
 1.00000E-01    4.69560E-08
 1.05000E-01    4.64225E-08
 1.10000E-01    4.58890E-08
 1.20000E-01    4.51870E-08
 1.30000E-01    4.50620E-08
 1.40000E-01    4.53000E-08
 1.50000E-01    4.58420E-08
 1.60000E-01    4.66670E-08
 1.70000E-01    4.93180E-08
 1.80000E-01    5.09630E-08
 1.90000E-01    5.29172E-08
 2.00000E-01    5.50100E-08
 2.25000E-01    5.82110E-08
 2.50000E-01    6.23570E-08
 2.70162E-01    6.89570E-08
 2.75000E-01    6.79020E-08
 2.80419E-01    6.84320E-08
 3.00000E-01    6.49100E-08
 4.00000E-01    7.91970E-08
 4.11245E-01    8.12120E-08
 5.00000E-01    1.05073E-07
 5.05073E-01    1.06470E-07
 5.50304E-01    1.15180E-07
 5.85986E-01    1.23538E-07
 6.00000E-01    1.26820E-07
 7.00000E-01    1.68788E-07
 7.40473E-01    1.88480E-07
 8.00000E-01    2.28080E-07
 8.59881E-01    2.70810E-07
 8.86517E-01    3.04980E-07
 8.92658E-01    3.08898E-07
 9.00000E-01    3.13800E-07
 9.40793E-01    3.49500E-07
 9.52855E-01    3.59070E-07
 1.00000E+00    4.19740E-07
 1.05045E+00    4.82440E-07
 1.10000E+00    5.80160E-07
 1.12574E+00    6.23922E-07
 1.15639E+00    6.79710E-07
 1.20000E+00    8.06780E-07
 1.22353E+00    8.60618E-07
 1.22625E+00    8.66717E-07
 1.23730E+00    8.90985E-07
 1.24836E+00    9.16602E-07
 1.26947E+00    9.68030E-07
 1.30000E+00    1.10460E-06
 1.40000E+00    1.50692E-06
 1.50000E+00    2.02739E-06
 1.60000E+00    2.74543E-06
 1.70000E+00    3.67745E-06
 1.80000E+00    4.87325E-06
 1.90000E+00    6.39833E-06
 2.00000E+00    8.32139E-06
 2.25000E+00    1.53995E-05
 2.50000E+00    2.74353E-05
 2.75000E+00    4.54111E-05
 3.00000E+00    7.49798E-05
 3.50000E+00    1.72877E-04
 4.00000E+00    3.51723E-04
 4.50000E+00    6.41197E-04
 5.00000E+00    1.06168E-03
 5.50000E+00    1.62026E-03
 6.00000E+00    2.31627E-03
 6.50000E+00    3.03769E-03
 7.00000E+00    4.07126E-03
 7.50000E+00    5.42988E-03
 8.00000E+00    7.29523E-03
 8.50000E+00    9.93602E-03
 9.00000E+00    1.35552E-02
 9.50000E+00    1.86315E-02
 1.00000E+01    2.58292E-02
 1.05000E+01    3.61051E-02
 1.10000E+01    5.08538E-02
 1.15000E+01    7.17856E-02
 1.20000E+01    1.01025E-01
 1.25000E+01    1.41112E-01
 1.30000E+01    1.94584E-01
 1.35000E+01    2.64045E-01
 1.40000E+01    3.51419E-01
 1.45000E+01    4.58339E-01
 1.50000E+01    5.85254E-01
 1.55000E+01    7.32406E-01
 1.60000E+01    8.99181E-01
 1.65000E+01    1.08435E+00
 1.70000E+01    1.28643E+00
 1.75000E+01    1.50407E+00
 1.80000E+01    1.73504E+00
 1.85000E+01    1.97767E+00
 1.90000E+01    2.23041E+00
 1.95000E+01    2.49133E+00
 2.00000E+01    2.75912E+00
