# n + Au197 : (n,xp)    
# jendl4.0   N.Iwamoto                         EVAL-Feb10
# 
# # energies =    94
#   E(MeV)        xs(mb) 
 7.77471E-02    2.11163E-20
 8.00000E-02    2.20434E-20
 9.00000E-02    2.61583E-20
 1.00000E-01    3.02732E-20
 1.05000E-01    3.23306E-20
 1.10000E-01    3.43881E-20
 1.20000E-01    3.85030E-20
 1.30000E-01    4.26179E-20
 1.40000E-01    4.67328E-20
 1.50000E-01    5.08477E-20
 1.60000E-01    5.49625E-20
 1.70000E-01    5.90774E-20
 1.80000E-01    6.31923E-20
 1.90000E-01    6.73072E-20
 2.00000E-01    7.14221E-20
 2.25000E-01    8.39742E-20
 2.50000E-01    9.84915E-20
 2.70162E-01    1.10788E-19
 2.75000E-01    1.13739E-19
 2.80419E-01    1.17044E-19
 3.00000E-01    1.28986E-19
 4.00000E-01    2.61559E-19
 4.11245E-01    2.88358E-19
 5.00000E-01    5.45411E-19
 5.05073E-01    5.61137E-19
 5.50304E-01    7.04934E-19
 5.85986E-01    8.24209E-19
 6.00000E-01    8.71059E-19
 7.00000E-01    1.21514E-18
 7.40473E-01    1.35923E-18
 8.00000E-01    1.57944E-18
 8.59881E-01    1.83229E-18
 8.86517E-01    1.94651E-18
 8.92658E-01    1.97285E-18
 9.00000E-01    2.00434E-18
 9.40793E-01    2.17927E-18
 9.52855E-01    2.29930E-18
 1.00000E+00    2.86910E-18
 1.05045E+00    4.89670E-18
 1.10000E+00    1.42990E-17
 1.12574E+00    2.77820E-17
 1.15639E+00    6.27840E-17
 1.20000E+00    1.97150E-16
 1.22353E+00    3.60430E-16
 1.22625E+00    3.85130E-16
 1.23730E+00    5.06920E-16
 1.24836E+00    6.65920E-16
 1.26947E+00    1.10740E-15
 1.30000E+00    2.27080E-15
 1.40000E+00    2.02800E-14
 1.50000E+00    1.43720E-13
 1.60000E+00    8.55630E-13
 1.70000E+00    4.30140E-12
 1.80000E+00    1.86730E-11
 1.90000E+00    7.13880E-11
 2.00000E+00    2.43900E-10
 2.25000E+00    3.65040E-09
 2.50000E+00    3.24040E-08
 2.75000E+00    2.10830E-07
 3.00000E+00    9.75110E-07
 3.50000E+00    1.16447E-05
 4.00000E+00    7.39427E-05
 4.50000E+00    2.98365E-04
 5.00000E+00    8.58273E-04
 5.50000E+00    1.90767E-03
 6.00000E+00    3.47038E-03
 6.50000E+00    5.43697E-03
 7.00000E+00    7.72293E-03
 7.50000E+00    1.04824E-02
 8.00000E+00    1.43256E-02
 8.50000E+00    2.06785E-02
 9.00000E+00    3.21522E-02
 9.50000E+00    5.28354E-02
 1.00000E+01    8.83356E-02
 1.05000E+01    1.45474E-01
 1.10000E+01    2.32072E-01
 1.15000E+01    3.56087E-01
 1.20000E+01    5.25306E-01
 1.25000E+01    7.47787E-01
 1.30000E+01    1.02968E+00
 1.35000E+01    1.37808E+00
 1.40000E+01    1.79656E+00
 1.45000E+01    2.29093E+00
 1.50000E+01    2.86127E+00
 1.55000E+01    3.51320E+00
 1.60000E+01    4.24233E+00
 1.65000E+01    5.05190E+00
 1.70000E+01    5.93818E+00
 1.75000E+01    6.89936E+00
 1.80000E+01    7.93292E+00
 1.85000E+01    9.03359E+00
 1.90000E+01    1.01994E+01
 1.95000E+01    1.14224E+01
 2.00000E+01    1.27027E+01
