# n + Mo100 : (n,xa)    
# jeff3.3    K.Shibata, A.Ichihara, S.Kunieda+ EVAL-MAR09
# 
# # energies =    63
#   E(MeV)        xs(mb) 
 5.40977E-01    0.00000E+00
 6.00000E-01    0.00000E+00
 7.00000E-01    0.00000E+00
 7.02138E-01    0.00000E+00
 8.00000E-01    0.00000E+00
 9.00000E-01    0.00000E+00
 1.00000E+00    0.00000E+00
 1.07453E+00    0.00000E+00
 1.14758E+00    0.00000E+00
 1.47869E+00    0.00000E+00
 1.50000E+00    0.00000E+00
 1.51983E+00    0.00000E+00
 1.62360E+00    0.00000E+00
 1.78434E+00    0.00000E+00
 1.78935E+00    0.00000E+00
 1.86555E+00    0.00000E+00
 1.92757E+00    0.00000E+00
 1.99730E+00    0.00000E+00
 2.00000E+00    0.00000E+00
 2.05806E+00    0.00000E+00
 2.06339E+00    0.00000E+00
 2.10302E+00    0.00000E+00
 2.10737E+00    0.00000E+00
 2.12440E+00    0.00000E+00
 2.17777E+00    0.00000E+00
 2.21165E+00    0.00000E+00
 2.22331E+00    0.00000E+00
 2.30954E+00    0.00000E+00
 2.33332E+00    0.00000E+00
 2.34373E+00    0.00000E+00
 2.36262E+00    0.00000E+00
 2.39358E+00    0.00000E+00
 2.42019E+00    0.00000E+00
 2.44108E+00    0.00000E+00
 2.45655E+00    0.00000E+00
 2.46665E+00    0.00000E+00
 2.50000E+00    0.00000E+00
 3.00000E+00    0.00000E+00
 3.50000E+00    0.00000E+00
 4.00000E+00    0.00000E+00
 4.50000E+00    0.00000E+00
 5.00000E+00    4.37600E-04
 5.50000E+00    9.49700E-04
 6.00000E+00    1.78100E-03
 6.50000E+00    2.82300E-03
 7.00000E+00    3.96500E-03
 7.50000E+00    1.57100E-02
 8.00000E+00    2.22100E-02
 8.50000E+00    3.34900E-02
 9.00000E+00    4.99000E-02
 9.50000E+00    8.71600E-02
 1.00000E+01    1.29300E-01
 1.10000E+01    3.17320E-01
 1.20000E+01    7.01838E-01
 1.30000E+01    1.34077E+00
 1.40000E+01    2.22300E+00
 1.46000E+01    2.84640E+00
 1.50000E+01    3.28960E+00
 1.60000E+01    4.46040E+00
 1.70000E+01    5.66200E+00
 1.80000E+01    6.84000E+00
 1.90000E+01    7.95400E+00
 2.00000E+01    8.97900E+00
