# n + Al 27 : (n,a)     
# jendl4.0   Y.HARIMA,H.KITAZAWA,T.FUKAHORI    EVAL-MAR88
# uncertainties: n
# # energies =    74
#   E(MeV)       xs(mb) 
 3.60000E+00    0.00000E+00
 3.85000E+00    3.56170E-12
 3.90000E+00    2.88380E-11
 3.95000E+00    1.77820E-10
 4.00000E+00    8.35000E-10
 4.05000E+00    3.67430E-09
 4.10000E+00    1.42220E-08
 4.15000E+00    4.84190E-08
 4.20000E+00    1.45000E-07
 4.25000E+00    4.09650E-07
 4.30000E+00    1.07580E-06
 4.35000E+00    2.62630E-06
 4.40000E+00    5.96000E-06
 4.45000E+00    1.29310E-05
 4.50000E+00    2.67860E-05
 4.55000E+00    5.29690E-05
 4.60000E+00    1.00000E-04
 4.65000E+00    1.83200E-04
 4.70000E+00    3.25200E-04
 4.75000E+00    5.59300E-04
 4.80000E+00    9.32000E-04
 4.85000E+00    1.51620E-03
 4.90000E+00    2.41070E-03
 4.95000E+00    3.74620E-03
 5.00000E+00    5.69000E-03
 5.10000E+00    1.24640E-02
 5.20000E+00    2.55000E-02
 5.30000E+00    4.92420E-02
 5.40000E+00    9.02000E-02
 5.50000E+00    1.58030E-01
 5.70000E+00    3.95000E-01
 6.10000E+00    1.62200E+00
 6.30000E+00    3.50300E+00
 6.50000E+00    5.91600E+00
 6.70000E+00    9.17100E+00
 6.90000E+00    1.38070E+01
 7.10000E+00    1.82530E+01
 7.30000E+00    2.16520E+01
 7.50000E+00    2.61800E+01
 7.70000E+00    3.45620E+01
 7.90000E+00    3.65390E+01
 8.12500E+00    4.15890E+01
 8.37500E+00    4.70590E+01
 8.75000E+00    6.14310E+01
 9.25000E+00    7.05660E+01
 1.00000E+01    8.96110E+01
 1.12500E+01    1.07928E+02
 1.22000E+01    1.20788E+02
 1.26000E+01    1.24288E+02
 1.29000E+01    1.27145E+02
 1.31000E+01    1.26843E+02
 1.33000E+01    1.29252E+02
 1.34750E+01    1.25069E+02
 1.36000E+01    1.25774E+02
 1.37000E+01    1.24856E+02
 1.38000E+01    1.22725E+02
 1.39000E+01    1.23020E+02
 1.40000E+01    1.22245E+02
 1.41000E+01    1.21907E+02
 1.42000E+01    1.21998E+02
 1.43000E+01    1.19970E+02
 1.44000E+01    1.17540E+02
 1.45000E+01    1.16046E+02
 1.46000E+01    1.14530E+02
 1.47000E+01    1.13100E+02
 1.48000E+01    1.12307E+02
 1.49000E+01    1.11292E+02
 1.55000E+01    1.05081E+02
 1.65000E+01    8.35550E+01
 1.75000E+01    6.71270E+01
 1.85000E+01    5.61360E+01
 1.92500E+01    4.46040E+01
 1.97500E+01    4.07530E+01
 2.00000E+01    3.91583E+01
