# n + V  51 : (n,n'01)  
# jendl4.0   N.Iwamoto                         EVAL-Mar10
# uncertainties: n
# # energies =    95
#   E(MeV)       xs(mb) 
 3.26420E-01    0.00000E+00
 4.00000E-01    2.67519E+02
 5.00000E-01    2.86018E+02
 6.00000E-01    3.02537E+02
 7.00000E-01    3.23447E+02
 8.00000E-01    3.48324E+02
 9.00000E-01    3.75481E+02
 9.47047E-01    3.88425E+02
 1.00000E+00    3.83025E+02
 1.10000E+00    4.04343E+02
 1.20000E+00    4.25927E+02
 1.30000E+00    4.43406E+02
 1.40000E+00    4.58118E+02
 1.50000E+00    4.69655E+02
 1.60000E+00    4.74919E+02
 1.64109E+00    4.76282E+02
 1.70000E+00    4.58315E+02
 1.80000E+00    4.54902E+02
 1.84914E+00    4.52450E+02
 1.90000E+00    4.21221E+02
 2.00000E+00    4.08464E+02
 2.25000E+00    3.82242E+02
 2.45851E+00    3.55008E+02
 2.50000E+00    3.43905E+02
 2.59784E+00    3.30526E+02
 2.73044E+00    3.13101E+02
 2.75000E+00    3.08479E+02
 2.75307E+00    3.08001E+02
 2.84524E+00    2.95518E+02
 3.00000E+00    2.61717E+02
 3.14467E+00    2.45380E+02
 3.21237E+00    2.32538E+02
 3.27845E+00    2.22848E+02
 3.32866E+00    2.15615E+02
 3.34493E+00    2.11220E+02
 3.37554E+00    2.04248E+02
 3.38573E+00    2.00566E+02
 3.43876E+00    1.90396E+02
 3.44460E+00    1.89137E+02
 3.44804E+00    1.86488E+02
 3.45019E+00    1.85404E+02
 3.45261E+00    1.82740E+02
 3.46224E+00    1.79095E+02
 3.47976E+00    1.74990E+02
 3.50000E+00    1.68576E+02
 3.51211E+00    1.66602E+02
 3.52248E+00    1.63912E+02
 3.58666E+00    1.51665E+02
 3.62518E+00    1.44496E+02
 3.63314E+00    1.41960E+02
 3.63885E+00    1.40172E+02
 3.64744E+00    1.37032E+02
 3.68561E+00    1.30606E+02
 3.69545E+00    1.28113E+02
 3.70391E+00    1.26278E+02
 3.70394E+00    1.26256E+02
 3.73563E+00    1.20728E+02
 3.74062E+00    1.19908E+02
 3.75062E+00    1.18381E+02
 3.75592E+00    1.17516E+02
 3.79641E+00    1.12094E+02
 3.81711E+00    1.09319E+02
 4.00000E+00    9.31453E+01
 4.50000E+00    5.60170E+01
 5.00000E+00    3.62869E+01
 5.50000E+00    2.55046E+01
 6.00000E+00    1.87921E+01
 6.50000E+00    1.41446E+01
 7.00000E+00    1.07252E+01
 7.50000E+00    8.15231E+00
 8.00000E+00    6.21417E+00
 8.50000E+00    4.79777E+00
 9.00000E+00    3.70572E+00
 9.50000E+00    2.90189E+00
 1.00000E+01    2.31049E+00
 1.05000E+01    1.87426E+00
 1.10000E+01    1.54796E+00
 1.15000E+01    1.30066E+00
 1.20000E+01    1.11157E+00
 1.25000E+01    9.62856E-01
 1.30000E+01    8.45835E-01
 1.35000E+01    7.50953E-01
 1.40000E+01    6.73957E-01
 1.45000E+01    6.09900E-01
 1.50000E+01    5.56429E-01
 1.55000E+01    5.11205E-01
 1.60000E+01    4.72298E-01
 1.65000E+01    4.38817E-01
 1.70000E+01    4.09539E-01
 1.75000E+01    3.83948E-01
 1.80000E+01    3.61244E-01
 1.85000E+01    3.41047E-01
 1.90000E+01    3.22970E-01
 1.95000E+01    3.06696E-01
 2.00000E+01    2.91827E-01
