# n + Ar 40 : (n,tot)   
# jendl.ad   T.WATANABE                        EVAL-MAR94
# uncertainties: n
# # energies =    69
#   E(MeV)       xs(mb) 
 1.00000E-10    4.60998E+03
 5.00000E-09    1.25521E+03
 1.00000E-08    9.50625E+02
 1.50000E-08    7.98692E+02
 2.00000E-08    7.02709E+02
 2.50000E-08    6.34872E+02
 3.00000E-08    5.83557E+02
 3.50000E-08    5.36486E+02
 4.20000E-08    4.90695E+02
 5.00000E-08    4.52663E+02
 5.80000E-08    4.20707E+02
 6.70000E-08    3.88210E+02
 8.00000E-08    3.51283E+02
 1.00000E-07    3.05643E+02
 1.40000E-07    2.63672E+02
 1.80000E-07    2.35471E+02
 2.20000E-07    2.16846E+02
 2.50000E-07    2.04113E+02
 2.80000E-07    1.94979E+02
 3.00000E-07    1.88559E+02
 3.20000E-07    1.81422E+02
 3.50000E-07    1.71587E+02
 4.00000E-07    1.57044E+02
 5.00000E-07    1.40440E+02
 6.25000E-07    1.25598E+02
 7.80000E-07    1.16328E+02
 8.50000E-07    1.11865E+02
 9.10000E-07    1.08762E+02
 9.50000E-07    1.06999E+02
 9.72000E-07    1.05719E+02
 9.96000E-07    1.04433E+02
 1.02000E-06    1.03218E+02
 1.04500E-06    1.01956E+02
 1.07100E-06    1.00680E+02
 1.09700E-06    9.95121E+01
 1.12300E-06    9.83482E+01
 1.15000E-06    9.47872E+01
 1.30000E-06    8.86612E+01
 1.50000E-06    7.86782E+01
 2.10000E-06    6.84450E+01
 2.60000E-06    6.10560E+01
 3.30000E-06    5.47655E+01
 4.00000E-06    4.17544E+01
 9.87700E-06    2.90097E+01
 1.59680E-05    2.20744E+01
 2.77000E-05    1.62851E+01
 4.80520E-05    1.21222E+01
 7.55014E-05    8.45632E+00
 1.48728E-04    4.66801E+00
 3.67262E-04    1.91194E+00
 9.06898E-04    7.80069E-01
 1.42510E-03    4.05645E-01
 2.23945E-03    2.09214E-01
 3.51910E-03    1.14679E-01
 5.53000E-03    7.03915E-02
 9.11800E-03    3.82168E+00
 1.50300E-02    2.85655E+00
 2.47800E-02    5.52138E-02
 4.08500E-02    1.76299E+00
 6.73400E-02    3.99528E+00
 1.11000E-01    1.01283E+00
 1.83000E-01    2.65503E+00
 3.02000E-01    1.43216E+00
 5.00000E-01    8.96330E-01
 8.21000E-01    9.22234E-01
 1.35300E+00    1.14219E+00
 2.23100E+00    9.04312E-01
 3.67900E+00    4.27842E-01
 6.06500E+00    7.93136E+00
