# n + Am243 :  n        
# jendl4.0   O.Iwamoto,T.Nakagawa,T.Ohsawa,+   EVAL-JAN10
# uncertainties: n
# # energies =    50
#   E(MeV)       xs(mb) 
 2.30000E+00    0.00000E+00
 2.50000E+00    2.24950E-10
 2.70000E+00    1.62930E-09
 3.00000E+00    2.44250E-08
 3.50000E+00    2.21261E-06
 3.75000E+00    1.01714E-04
 4.00000E+00    2.01348E-04
 4.25000E+00    8.56244E-03
 4.50000E+00    1.73021E-02
 4.75000E+00    4.22167E-01
 5.00000E+00    8.31464E-01
 5.25000E+00    9.04468E+00
 5.50000E+00    1.74666E+01
 5.62500E+00    5.12304E+01
 5.75000E+00    8.40849E+01
 6.00000E+00    1.47206E+02
 6.12500E+00    2.28558E+02
 6.25000E+00    3.12689E+02
 6.37500E+00    3.97036E+02
 6.50000E+00    4.90197E+02
 6.75000E+00    6.17513E+02
 7.00000E+00    7.36761E+02
 7.50000E+00    8.97581E+02
 8.00000E+00    9.11906E+02
 8.50000E+00    8.93193E+02
 9.00000E+00    8.75156E+02
 9.25000E+00    8.65524E+02
 9.50000E+00    8.55815E+02
 1.00000E+01    8.40775E+02
 1.05000E+01    8.48631E+02
 1.10000E+01    8.52831E+02
 1.15000E+01    8.63712E+02
 1.20000E+01    8.74603E+02
 1.25000E+01    8.89364E+02
 1.30000E+01    9.03439E+02
 1.35000E+01    9.14229E+02
 1.40000E+01    9.17820E+02
 1.45000E+01    9.13193E+02
 1.50000E+01    9.08147E+02
 1.52500E+01    8.99451E+02
 1.55000E+01    8.90706E+02
 1.57500E+01    8.84372E+02
 1.60000E+01    8.77997E+02
 1.65000E+01    8.70019E+02
 1.70000E+01    8.63255E+02
 1.75000E+01    8.61934E+02
 1.80000E+01    8.63023E+02
 1.85000E+01    8.68164E+02
 1.95000E+01    8.75263E+02
 2.00000E+01    8.81356E+02
