# n + Re185 : (n,xn)    
# jendl.ad   N.Iwamoto                         EVAL-Apr14
# 
# # energies =    93
#   E(MeV)        xs(mb) 
 1.05000E-01    0.00000E+00
 1.10000E-01    6.24189E-03
 1.20000E-01    7.50537E-03
 1.26043E-01    8.09638E-03
 1.30000E-01    1.73759E+02
 1.40000E-01    2.63911E+02
 1.50000E-01    3.14641E+02
 1.60000E-01    3.58749E+02
 1.70000E-01    3.92855E+02
 1.80000E-01    4.23134E+02
 1.90000E-01    4.50875E+02
 2.00000E-01    4.76667E+02
 2.25000E-01    5.35319E+02
 2.50000E-01    5.89200E+02
 2.75000E-01    6.38677E+02
 2.85750E-01    6.59240E+02
 3.00000E-01    7.40480E+02
 3.70309E-01    9.27949E+02
 4.00000E-01    1.03508E+03
 4.78294E-01    1.22011E+03
 5.00000E-01    1.27852E+03
 5.49983E-01    1.37831E+03
 6.00000E-01    1.47132E+03
 6.49658E-01    1.55192E+03
 7.00000E-01    1.65843E+03
 7.00902E-01    1.65991E+03
 7.21359E-01    1.69356E+03
 7.61631E-01    1.81125E+03
 7.73123E-01    1.83359E+03
 7.73124E-01    1.83360E+03
 8.00000E-01    1.92855E+03
 8.30505E-01    1.99168E+03
 8.40559E-01    2.02701E+03
 8.79586E-01    2.13507E+03
 8.85132E-01    2.15503E+03
 9.00000E-01    2.19408E+03
 9.22001E-01    2.23826E+03
 9.36141E-01    2.27818E+03
 9.54879E-01    2.32367E+03
 9.71268E-01    2.35355E+03
 1.00000E+00    2.40662E+03
 1.00022E+00    2.40698E+03
 1.00023E+00    2.40699E+03
 1.01852E+00    2.43433E+03
 1.05070E+00    2.49188E+03
 1.10000E+00    2.55245E+03
 1.20000E+00    2.66023E+03
 1.30000E+00    2.76217E+03
 1.40000E+00    2.84626E+03
 1.50000E+00    2.91420E+03
 1.60000E+00    2.96799E+03
 1.70000E+00    3.00963E+03
 1.80000E+00    3.04076E+03
 1.90000E+00    3.06292E+03
 2.00000E+00    3.07735E+03
 2.25000E+00    3.08217E+03
 2.50000E+00    3.07018E+03
 2.75000E+00    3.03888E+03
 3.00000E+00    3.00733E+03
 3.50000E+00    2.94719E+03
 4.00000E+00    2.90720E+03
 4.50000E+00    2.88179E+03
 5.00000E+00    2.86318E+03
 5.50000E+00    2.84221E+03
 6.00000E+00    2.81867E+03
 6.50000E+00    2.79215E+03
 7.00000E+00    2.76753E+03
 7.50000E+00    2.74600E+03
 8.00000E+00    2.76707E+03
 8.50000E+00    3.12890E+03
 9.00000E+00    3.63769E+03
 9.50000E+00    4.05847E+03
 1.00000E+01    4.35137E+03
 1.05000E+01    4.54154E+03
 1.10000E+01    4.65995E+03
 1.15000E+01    4.73148E+03
 1.20000E+01    4.77310E+03
 1.25000E+01    4.79591E+03
 1.30000E+01    4.80721E+03
 1.35000E+01    4.81163E+03
 1.40000E+01    4.81207E+03
 1.45000E+01    4.81039E+03
 1.50000E+01    4.82079E+03
 1.55000E+01    4.88242E+03
 1.60000E+01    5.01159E+03
 1.65000E+01    5.19658E+03
 1.70000E+01    5.40749E+03
 1.75000E+01    5.61730E+03
 1.80000E+01    5.80429E+03
 1.85000E+01    5.97591E+03
 1.90000E+01    6.10643E+03
 1.95000E+01    6.21228E+03
 2.00000E+01    6.29472E+03
