# n + Re185 : (n,xa)    
# jendl.ad   N.Iwamoto                         EVAL-Apr14
# 
# # energies =    93
#   E(MeV)        xs(mb) 
 1.05000E-01    1.82102E-05
 1.10000E-01    1.84578E-05
 1.20000E-01    1.84675E-05
 1.26043E-01    1.84589E-05
 1.30000E-01    1.72976E-05
 1.40000E-01    1.67854E-05
 1.50000E-01    1.65360E-05
 1.60000E-01    1.63476E-05
 1.70000E-01    1.62310E-05
 1.80000E-01    1.61694E-05
 1.90000E-01    1.61381E-05
 2.00000E-01    1.61623E-05
 2.25000E-01    1.68016E-05
 2.50000E-01    1.71154E-05
 2.75000E-01    1.75310E-05
 2.85750E-01    1.77293E-05
 3.00000E-01    1.70524E-05
 3.70309E-01    1.85245E-05
 4.00000E-01    1.85991E-05
 4.78294E-01    2.11185E-05
 5.00000E-01    2.15146E-05
 5.49983E-01    2.39512E-05
 6.00000E-01    2.57896E-05
 6.49658E-01    2.90831E-05
 7.00000E-01    3.12291E-05
 7.00902E-01    3.12676E-05
 7.21359E-01    3.36030E-05
 7.61631E-01    3.49467E-05
 7.73123E-01    3.54950E-05
 7.73124E-01    3.54950E-05
 8.00000E-01    3.60849E-05
 8.30505E-01    3.90272E-05
 8.40559E-01    3.92667E-05
 8.79586E-01    4.02437E-05
 8.85132E-01    4.03914E-05
 9.00000E-01    4.08552E-05
 9.22001E-01    4.36199E-05
 9.36141E-01    4.37569E-05
 9.54879E-01    4.43331E-05
 9.71268E-01    4.50473E-05
 1.00000E+00    4.61634E-05
 1.00022E+00    4.61716E-05
 1.00023E+00    4.61733E-05
 1.01852E+00    4.92040E-05
 1.05070E+00    5.05547E-05
 1.10000E+00    5.36128E-05
 1.20000E+00    6.24583E-05
 1.30000E+00    7.09451E-05
 1.40000E+00    7.98344E-05
 1.50000E+00    8.93474E-05
 1.60000E+00    9.96959E-05
 1.70000E+00    1.11191E-04
 1.80000E+00    1.23966E-04
 1.90000E+00    1.38161E-04
 2.00000E+00    1.53910E-04
 2.25000E+00    2.11778E-04
 2.50000E+00    2.60305E-04
 2.75000E+00    3.47183E-04
 3.00000E+00    4.72998E-04
 3.50000E+00    7.36218E-04
 4.00000E+00    1.10381E-03
 4.50000E+00    1.58684E-03
 5.00000E+00    2.23485E-03
 5.50000E+00    3.09950E-03
 6.00000E+00    4.33094E-03
 6.50000E+00    6.19888E-03
 7.00000E+00    9.17764E-03
 7.50000E+00    1.40048E-02
 8.00000E+00    2.17336E-02
 8.50000E+00    3.29955E-02
 9.00000E+00    4.95562E-02
 9.50000E+00    7.45062E-02
 1.00000E+01    1.11340E-01
 1.05000E+01    1.63918E-01
 1.10000E+01    2.36435E-01
 1.15000E+01    3.32414E-01
 1.20000E+01    4.54528E-01
 1.25000E+01    6.04165E-01
 1.30000E+01    7.81318E-01
 1.35000E+01    9.84709E-01
 1.40000E+01    1.21206E+00
 1.45000E+01    1.46021E+00
 1.50000E+01    1.72630E+00
 1.55000E+01    2.00668E+00
 1.60000E+01    2.29827E+00
 1.65000E+01    2.59706E+00
 1.70000E+01    2.90119E+00
 1.75000E+01    3.20761E+00
 1.80000E+01    3.51466E+00
 1.85000E+01    3.82001E+00
 1.90000E+01    4.12238E+00
 1.95000E+01    4.42092E+00
 2.00000E+01    4.71470E+00
