# n + Re185 : (n,xp)    
# jendl.ad   N.Iwamoto                         EVAL-Apr14
# 
# # energies =    93
#   E(MeV)        xs(mb) 
 1.05000E-01    1.03236E-19
 1.10000E-01    1.11184E-19
 1.20000E-01    1.27078E-19
 1.26043E-01    1.36683E-19
 1.30000E-01    1.47782E-19
 1.40000E-01    2.04712E-19
 1.50000E-01    2.95728E-19
 1.60000E-01    4.00701E-19
 1.70000E-01    5.05674E-19
 1.80000E-01    6.10647E-19
 1.90000E-01    7.15620E-19
 2.00000E-01    8.20593E-19
 2.25000E-01    1.09847E-18
 2.50000E-01    1.46610E-18
 2.75000E-01    1.83373E-18
 2.85750E-01    1.99182E-18
 3.00000E-01    2.20137E-18
 3.70309E-01    3.58255E-18
 4.00000E-01    4.27625E-18
 4.78294E-01    6.75307E-18
 5.00000E-01    7.62565E-18
 5.49983E-01    1.00195E-17
 6.00000E-01    1.25665E-17
 6.49658E-01    1.51297E-17
 7.00000E-01    2.96120E-17
 7.00902E-01    4.22210E-17
 7.21359E-01    6.72570E-17
 7.61631E-01    1.82240E-16
 7.73123E-01    2.49034E-16
 7.73124E-01    2.49040E-16
 8.00000E-01    4.87630E-16
 8.30505E-01    1.07130E-15
 8.40559E-01    1.35480E-15
 8.79586E-01    3.38890E-15
 8.85132E-01    3.81950E-15
 9.00000E-01    5.30700E-15
 9.22001E-01    8.74600E-15
 9.36141E-01    1.18630E-14
 9.54879E-01    1.75760E-14
 9.71268E-01    2.49350E-14
 1.00000E+00    4.55580E-14
 1.00022E+00    4.58099E-14
 1.00023E+00    4.58213E-14
 1.01852E+00    6.67670E-14
 1.05070E+00    1.25300E-13
 1.10000E+00    3.20760E-13
 1.20000E+00    1.88370E-12
 1.30000E+00    9.17770E-12
 1.40000E+00    3.84740E-11
 1.50000E+00    1.41620E-10
 1.60000E+00    4.65440E-10
 1.70000E+00    1.38410E-09
 1.80000E+00    3.76930E-09
 1.90000E+00    9.48670E-09
 2.00000E+00    2.22570E-08
 2.25000E+00    1.47781E-07
 2.50000E+00    6.84321E-07
 2.75000E+00    2.56738E-06
 3.00000E+00    7.59546E-06
 3.50000E+00    4.39593E-05
 4.00000E+00    1.61077E-04
 4.50000E+00    4.23158E-04
 5.00000E+00    8.70115E-04
 5.50000E+00    1.45768E-03
 6.00000E+00    2.31348E-03
 6.50000E+00    3.73108E-03
 7.00000E+00    6.67299E-03
 7.50000E+00    1.33619E-02
 8.00000E+00    2.81825E-02
 8.50000E+00    5.89349E-02
 9.00000E+00    1.17641E-01
 9.50000E+00    2.20702E-01
 1.00000E+01    3.87666E-01
 1.05000E+01    6.39742E-01
 1.10000E+01    9.96389E-01
 1.15000E+01    1.47526E+00
 1.20000E+01    2.09120E+00
 1.25000E+01    2.85658E+00
 1.30000E+01    3.78171E+00
 1.35000E+01    4.87494E+00
 1.40000E+01    6.14269E+00
 1.45000E+01    7.58929E+00
 1.50000E+01    9.21681E+00
 1.55000E+01    1.10234E+01
 1.60000E+01    1.30117E+01
 1.65000E+01    1.51708E+01
 1.70000E+01    1.75013E+01
 1.75000E+01    1.99875E+01
 1.80000E+01    2.26294E+01
 1.85000E+01    2.54092E+01
 1.90000E+01    2.83175E+01
 1.95000E+01    3.13560E+01
 2.00000E+01    3.45006E+01
