# n + Am242m:  n        
# jendl4.0   O.Iwamoto,T.Nakagawa,T.Ohsawa,+   EVAL-JAN10
# uncertainties: n
# # energies =    46
#   E(MeV)       xs(mb) 
 2.30000E+00    0.00000E+00
 2.50000E+00    2.45960E-11
 2.70000E+00    2.11020E-10
 3.00000E+00    2.02700E-09
 3.25000E+00    3.88520E-08
 3.50000E+00    7.60430E-08
 3.75000E+00    1.60013E-06
 4.00000E+00    3.12760E-06
 4.25000E+00    7.21508E-05
 4.50000E+00    1.41396E-04
 4.75000E+00    3.52882E-03
 5.00000E+00    6.93691E-03
 5.12500E+00    9.41051E-02
 5.25000E+00    1.78690E-01
 5.50000E+00    3.40682E-01
 6.00000E+00    1.01968E+01
 6.25000E+00    5.74342E+01
 6.50000E+00    1.04676E+02
 6.75000E+00    2.10825E+02
 7.00000E+00    3.17906E+02
 7.50000E+00    4.96888E+02
 8.00000E+00    6.35349E+02
 8.50000E+00    7.25289E+02
 9.00000E+00    7.91966E+02
 9.50000E+00    8.43005E+02
 1.00000E+01    8.88230E+02
 1.05000E+01    9.14005E+02
 1.10000E+01    9.38852E+02
 1.15000E+01    9.59869E+02
 1.20000E+01    9.75914E+02
 1.25000E+01    9.85676E+02
 1.30000E+01    9.91046E+02
 1.35000E+01    9.94470E+02
 1.40000E+01    9.98463E+02
 1.45000E+01    9.89529E+02
 1.50000E+01    9.86149E+02
 1.55000E+01    9.81599E+02
 1.60000E+01    9.81028E+02
 1.65000E+01    9.79511E+02
 1.70000E+01    9.78824E+02
 1.75000E+01    9.80710E+02
 1.80000E+01    9.80739E+02
 1.85000E+01    9.85886E+02
 1.90000E+01    9.90859E+02
 1.95000E+01    9.93523E+02
 2.00000E+01    9.97832E+02
