# n + Xe124 : (n,xa)    
# jendl.ad   kunieda                           EVAL-Mar14
# 
# # energies =    58
#   E(MeV)        xs(mb) 
 1.50000E-01    2.04656E-07
 2.00000E-01    2.79670E-07
 3.00000E-01    5.96680E-07
 3.57023E-01    9.07880E-07
 4.00000E-01    9.38970E-07
 5.00000E-01    1.60286E-06
 6.00000E-01    2.67406E-06
 7.00000E-01    4.43550E-06
 8.00000E-01    7.25907E-06
 8.53502E-01    9.39844E-06
 8.86186E-01    1.00334E-05
 9.00000E-01    1.05571E-05
 1.00000E+00    1.58197E-05
 1.20000E+00    3.55320E-05
 1.25820E+00    4.43910E-05
 1.27928E+00    4.71679E-05
 1.40000E+00    6.93166E-05
 1.60000E+00    1.31737E-04
 1.80000E+00    2.40115E-04
 2.00000E+00    4.28109E-04
 2.20000E+00    7.80261E-04
 2.40000E+00    1.39985E-03
 2.70000E+00    3.35127E-03
 3.00000E+00    7.20005E-03
 3.50000E+00    2.08556E-02
 4.00000E+00    5.32881E-02
 4.50000E+00    1.14565E-01
 5.00000E+00    2.16879E-01
 5.50000E+00    3.65656E-01
 6.00000E+00    5.23420E-01
 6.50000E+00    7.13798E-01
 7.00000E+00    8.91786E-01
 7.50000E+00    1.03890E+00
 8.00000E+00    1.18105E+00
 8.50000E+00    1.37439E+00
 9.00000E+00    1.60718E+00
 9.50000E+00    1.89944E+00
 1.00000E+01    2.26984E+00
 1.05000E+01    2.76603E+00
 1.10000E+01    3.35939E+00
 1.15000E+01    4.04515E+00
 1.20000E+01    4.83699E+00
 1.25000E+01    5.73015E+00
 1.30000E+01    6.68701E+00
 1.35000E+01    7.75822E+00
 1.40000E+01    8.84831E+00
 1.45000E+01    1.00169E+01
 1.50000E+01    1.12261E+01
 1.55000E+01    1.24178E+01
 1.60000E+01    1.36768E+01
 1.65000E+01    1.48825E+01
 1.70000E+01    1.61307E+01
 1.75000E+01    1.73228E+01
 1.80000E+01    1.85785E+01
 1.85000E+01    1.97472E+01
 1.90000E+01    2.09022E+01
 1.95000E+01    2.21294E+01
 2.00000E+01    2.32745E+01
