# n + Br  0 : (n,xn)
# jendl4.0   K.Shibata, A.Ichihara, S.Kunieda  EVAL-AUG09
#
# # energies =    78
#   E(MeV)          xs(mb) 
 2.10172E-01    0.00000E+00
 2.19885E-01    1.23100E+00
 2.64680E-01    8.80536E+01
 3.00000E-01    3.36313E+02
 3.10427E-01    3.63075E+02
 3.86376E-01    6.50541E+02
 4.00000E-01    7.50643E+02
 4.02560E-01    7.55293E+02
 5.00000E-01    1.00728E+03
 5.29816E-01    1.02880E+03
 6.00000E-01    1.25021E+03
 6.13766E-01    1.26779E+03
 7.00000E-01    1.45598E+03
 7.71081E-01    1.51810E+03
 8.00000E-01    1.58839E+03
 8.03540E-01    1.58947E+03
 8.06994E-01    1.59139E+03
 8.42604E-01    1.61324E+03
 9.00000E-01    1.70554E+03
 9.17985E-01    1.70511E+03
 9.52014E-01    1.72070E+03
 9.66274E-01    1.73115E+03
 9.66902E-01    1.73173E+03
 1.00000E+00    1.78310E+03
 1.04560E+00    1.74655E+03
 1.05208E+00    1.74226E+03
 1.06646E+00    1.73325E+03
 1.08165E+00    1.72452E+03
 1.09350E+00    1.71830E+03
 1.12673E+00    1.70417E+03
 1.13837E+00    1.70043E+03
 1.14613E+00    1.69843E+03
 1.19174E+00    1.68868E+03
 1.19589E+00    1.68826E+03
 1.20470E+00    1.68750E+03
 1.23721E+00    1.68994E+03
 1.27033E+00    1.69622E+03
 1.27256E+00    1.69689E+03
 1.33059E+00    1.72688E+03
 1.34932E+00    1.74156E+03
 1.35004E+00    1.74226E+03
 1.39359E+00    1.79135E+03
 1.40817E+00    1.81074E+03
 1.48960E+00    1.93043E+03
 1.50000E+00    1.94693E+03
 1.51077E+00    1.94290E+03
 1.52079E+00    1.93925E+03
 1.53163E+00    1.93565E+03
 1.53203E+00    1.93554E+03
 1.54216E+00    1.93324E+03
 2.00000E+00    2.06089E+03
 2.50000E+00    2.09636E+03
 3.00000E+00    2.10998E+03
 3.50000E+00    2.08814E+03
 4.00000E+00    2.03935E+03
 4.50000E+00    1.97940E+03
 5.00000E+00    1.92005E+03
 5.50000E+00    1.87002E+03
 6.00000E+00    1.83042E+03
 6.50000E+00    1.80179E+03
 7.00000E+00    1.78120E+03
 7.50000E+00    1.76645E+03
 8.00000E+00    1.75535E+03
 8.50000E+00    1.74607E+03
 9.00000E+00    1.73787E+03
 9.50000E+00    1.72953E+03
 1.00000E+01    1.72152E+03
 1.10000E+01    1.79056E+03
 1.20000E+01    2.12682E+03
 1.30000E+01    2.41956E+03
 1.40000E+01    2.59318E+03
 1.45000E+01    2.64500E+03
 1.50000E+01    2.67854E+03
 1.60000E+01    2.70903E+03
 1.70000E+01    2.70655E+03
 1.80000E+01    2.69353E+03
 1.90000E+01    2.67658E+03
 2.00000E+01    2.67839E+03
