# n + Fe 54 : (n,xp)    
# jendl4.0   S.IIJIMA,H.YAMAKOSHI              EVAL-MAR87
# 
# # energies =   102
#   E(MeV)        xs(mb) 
 1.43453E+00    8.69060E-01
 1.43503E+00    8.70060E-01
 1.43602E+00    8.72047E-01
 1.43700E+00    8.74003E-01
 1.43893E+00    8.77860E-01
 1.44080E+00    8.81600E-01
 1.44261E+00    8.85228E-01
 1.44437E+00    8.88748E-01
 1.44779E+00    8.95579E-01
 1.45100E+00    9.01997E-01
 1.45401E+00    9.08027E-01
 1.45685E+00    9.13692E-01
 1.46217E+00    9.24344E-01
 1.46685E+00    9.33695E-01
 1.47095E+00    9.41902E-01
 1.47455E+00    9.49103E-01
 1.48087E+00    9.61746E-01
 1.48563E+00    9.71263E-01
 1.49280E+00    9.85597E-01
 1.50000E+00    1.00000E+00
 1.51452E+00    1.36664E+00
 1.52826E+00    1.71358E+00
 1.55437E+00    2.37262E+00
 1.57757E+00    2.95849E+00
 1.59816E+00    3.47831E+00
 1.61639E+00    3.93871E+00
 1.63252E+00    4.34586E+00
 1.66113E+00    5.06819E+00
 1.68291E+00    5.61823E+00
 1.69944E+00    6.03548E+00
 1.72454E+00    6.66906E+00
 1.75000E+00    7.31200E+00
 1.77946E+00    8.48997E+00
 1.80563E+00    9.53694E+00
 1.82886E+00    1.04657E+01
 1.87022E+00    1.21198E+01
 1.90185E+00    1.33849E+01
 1.92593E+00    1.43477E+01
 1.96261E+00    1.58149E+01
 2.00000E+00    1.73100E+01
 2.06525E+00    2.43309E+01
 2.12409E+00    3.06619E+01
 2.17694E+00    3.63493E+01
 2.22427E+00    4.14417E+01
 2.26653E+00    4.56247E+01
 2.34241E+00    5.21206E+01
 2.40099E+00    5.71348E+01
 2.49162E+00    6.48923E+01
 2.58566E+00    8.05799E+01
 2.60920E+00    8.46938E+01
 2.65512E+00    9.27187E+01
 2.69596E+00    9.98563E+01
 2.76895E+00    1.12120E+02
 2.82499E+00    1.20459E+02
 2.91118E+00    1.33284E+02
 3.00000E+00    1.46500E+02
 3.00506E+00    1.46905E+02
 3.01433E+00    1.47646E+02
 3.06575E+00    1.51760E+02
 3.11804E+00    1.55943E+02
 3.17122E+00    1.60198E+02
 3.22531E+00    1.64525E+02
 3.29041E+00    1.77992E+02
 3.35682E+00    1.96880E+02
 3.40755E+00    2.11307E+02
 3.52574E+00    2.38722E+02
 3.64803E+00    2.44054E+02
 3.77457E+00    2.50927E+02
 3.90549E+00    2.63862E+02
 4.00000E+00    2.73200E+02
 4.10842E+00    2.88639E+02
 4.12288E+00    2.90698E+02
 4.14815E+00    2.94297E+02
 4.34292E+00    3.15973E+02
 4.37644E+00    3.18561E+02
 4.68398E+00    3.57831E+02
 4.74205E+00    3.67215E+02
 4.78789E+00    3.75017E+02
 4.86939E+00    3.89035E+02
 5.00000E+00    4.11500E+02
 5.04155E+00    4.16835E+02
 5.24121E+00    4.42471E+02
 5.60779E+00    4.78202E+02
 5.80058E+00    4.91620E+02
 6.00000E+00    5.05500E+02
 6.23574E+00    5.05736E+02
 6.48074E+00    5.05981E+02
 6.73537E+00    5.04447E+02
 7.00000E+00    5.02700E+02
 8.00000E+00    5.02700E+02
 9.00000E+00    5.01300E+02
 1.00000E+01    4.99484E+02
 1.10000E+01    5.54884E+02
 1.20000E+01    6.63503E+02
 1.30000E+01    7.95683E+02
 1.40000E+01    8.58200E+02
 1.50000E+01    8.76313E+02
 1.60000E+01    8.75990E+02
 1.70000E+01    8.72729E+02
 1.80000E+01    8.69110E+02
 1.90000E+01    8.54427E+02
 2.00000E+01    8.53098E+02
