# n + Fe 54 : (n,xn)    
# jendl4.0   S.IIJIMA,H.YAMAKOSHI              EVAL-MAR87
# 
# # energies =   102
#   E(MeV)        xs(mb) 
 1.43453E+00    0.00000E+00
 1.43503E+00    2.19913E+00
 1.43602E+00    6.56298E+00
 1.43700E+00    1.08587E+01
 1.43893E+00    1.93157E+01
 1.44080E+00    2.75085E+01
 1.44261E+00    3.54452E+01
 1.44437E+00    4.31339E+01
 1.44779E+00    5.80308E+01
 1.45100E+00    7.19966E+01
 1.45401E+00    8.50895E+01
 1.45685E+00    9.73642E+01
 1.46217E+00    1.20379E+02
 1.46685E+00    1.40517E+02
 1.47095E+00    1.58138E+02
 1.47455E+00    1.73556E+02
 1.48087E+00    2.00538E+02
 1.48563E+00    2.20774E+02
 1.49280E+00    2.51129E+02
 1.50000E+00    2.81483E+02
 1.51452E+00    2.89567E+02
 1.52826E+00    2.97145E+02
 1.55437E+00    3.11355E+02
 1.57757E+00    3.23788E+02
 1.59816E+00    3.34668E+02
 1.61639E+00    3.44187E+02
 1.63252E+00    3.52517E+02
 1.66113E+00    3.67093E+02
 1.68291E+00    3.78026E+02
 1.69944E+00    3.86225E+02
 1.72454E+00    3.98524E+02
 1.75000E+00    4.10823E+02
 1.77946E+00    4.20774E+02
 1.80563E+00    4.29482E+02
 1.82886E+00    4.37101E+02
 1.87022E+00    4.50434E+02
 1.90185E+00    4.60433E+02
 1.92593E+00    4.67933E+02
 1.96261E+00    4.79183E+02
 2.00000E+00    4.90433E+02
 2.06525E+00    5.00817E+02
 2.12409E+00    5.09903E+02
 2.17694E+00    5.17854E+02
 2.22427E+00    5.24810E+02
 2.26653E+00    5.30897E+02
 2.34241E+00    5.41549E+02
 2.40099E+00    5.49539E+02
 2.49162E+00    5.61522E+02
 2.58566E+00    5.73506E+02
 2.60920E+00    5.79169E+02
 2.65512E+00    5.88231E+02
 2.69596E+00    5.96160E+02
 2.76895E+00    6.10036E+02
 2.82499E+00    6.20443E+02
 2.91118E+00    6.36054E+02
 3.00000E+00    6.51664E+02
 3.00506E+00    6.52140E+02
 3.01433E+00    6.52979E+02
 3.06575E+00    6.71247E+02
 3.11804E+00    6.89514E+02
 3.17122E+00    7.07770E+02
 3.22531E+00    7.26025E+02
 3.29041E+00    7.48157E+02
 3.35682E+00    7.70290E+02
 3.40755E+00    7.77892E+02
 3.52574E+00    7.92083E+02
 3.64803E+00    8.06274E+02
 3.77457E+00    8.20417E+02
 3.90549E+00    8.34560E+02
 4.00000E+00    8.39169E+02
 4.10842E+00    8.38795E+02
 4.12288E+00    8.38847E+02
 4.14815E+00    8.38920E+02
 4.34292E+00    8.41272E+02
 4.37644E+00    8.40773E+02
 4.68398E+00    8.34043E+02
 4.74205E+00    8.34283E+02
 4.78789E+00    8.34847E+02
 4.86939E+00    8.32604E+02
 5.00000E+00    8.29045E+02
 5.04155E+00    8.30611E+02
 5.24121E+00    8.36814E+02
 5.60779E+00    8.44941E+02
 5.80058E+00    8.51563E+02
 6.00000E+00    8.58185E+02
 6.23574E+00    8.48149E+02
 6.48074E+00    8.40114E+02
 6.73537E+00    8.34159E+02
 7.00000E+00    8.30365E+02
 8.00000E+00    8.30204E+02
 9.00000E+00    8.50344E+02
 1.00000E+01    8.54192E+02
 1.10000E+01    8.55164E+02
 1.20000E+01    8.64530E+02
 1.30000E+01    9.07382E+02
 1.40000E+01    9.74593E+02
 1.50000E+01    1.04717E+03
 1.60000E+01    1.10785E+03
 1.70000E+01    1.14875E+03
 1.80000E+01    1.17774E+03
 1.90000E+01    1.19364E+03
 2.00000E+01    1.20155E+03
