# n + Fe 54 : (n,xa)    
# jendl4.0   S.IIJIMA,H.YAMAKOSHI              EVAL-MAR87
# 
# # energies =   102
#   E(MeV)        xs(mb) 
 1.43453E+00    1.77790E-05
 1.43503E+00    1.77995E-05
 1.43602E+00    1.78401E-05
 1.43700E+00    1.78801E-05
 1.43893E+00    1.79590E-05
 1.44080E+00    1.80355E-05
 1.44261E+00    1.81097E-05
 1.44437E+00    1.81817E-05
 1.44779E+00    1.83214E-05
 1.45100E+00    1.84527E-05
 1.45401E+00    1.85760E-05
 1.45685E+00    1.86919E-05
 1.46217E+00    1.89097E-05
 1.46685E+00    1.91010E-05
 1.47095E+00    1.92688E-05
 1.47455E+00    1.94161E-05
 1.48087E+00    1.96747E-05
 1.48563E+00    1.98693E-05
 1.49280E+00    2.01625E-05
 1.50000E+00    2.04570E-05
 1.51452E+00    2.10510E-05
 1.52826E+00    2.16131E-05
 1.55437E+00    2.26808E-05
 1.57757E+00    2.36300E-05
 1.59816E+00    2.44722E-05
 1.61639E+00    2.52181E-05
 1.63252E+00    2.58777E-05
 1.66113E+00    2.70479E-05
 1.68291E+00    2.79391E-05
 1.69944E+00    2.86150E-05
 1.72454E+00    2.96415E-05
 1.75000E+00    3.06831E-05
 1.77946E+00    3.18880E-05
 1.80563E+00    3.29588E-05
 1.82886E+00    3.39088E-05
 1.87022E+00    3.56006E-05
 1.90185E+00    3.68946E-05
 1.92593E+00    3.78794E-05
 1.96261E+00    3.93800E-05
 2.00000E+00    4.10288E-05
 2.06525E+00    5.68277E-04
 2.12409E+00    1.04383E-03
 2.17694E+00    1.47105E-03
 2.22427E+00    1.85357E-03
 2.26653E+00    2.19509E-03
 2.34241E+00    2.80844E-03
 2.40099E+00    3.28190E-03
 2.49162E+00    4.01437E-03
 2.58566E+00    4.77449E-03
 2.60920E+00    4.96475E-03
 2.65512E+00    5.33590E-03
 2.69596E+00    5.66600E-03
 2.76895E+00    6.25596E-03
 2.82499E+00    6.70888E-03
 2.91118E+00    7.40551E-03
 3.00000E+00    8.12339E-03
 3.00506E+00    8.94905E-03
 3.01433E+00    1.04617E-02
 3.06575E+00    1.88516E-02
 3.11804E+00    2.73847E-02
 3.17122E+00    3.60626E-02
 3.22531E+00    4.48885E-02
 3.29041E+00    5.55109E-02
 3.35682E+00    6.63477E-02
 3.40755E+00    7.46256E-02
 3.52574E+00    9.39114E-02
 3.64803E+00    1.13866E-01
 3.77457E+00    1.34514E-01
 3.90549E+00    1.55877E-01
 4.00000E+00    1.71299E-01
 4.10842E+00    2.94178E-01
 4.12288E+00    3.10567E-01
 4.14815E+00    3.39207E-01
 4.34292E+00    5.59951E-01
 4.37644E+00    5.97942E-01
 4.68398E+00    9.46496E-01
 4.74205E+00    1.01231E+00
 4.78789E+00    1.06426E+00
 4.86939E+00    1.15663E+00
 5.00000E+00    1.30466E+00
 5.04155E+00    1.62607E+00
 5.24121E+00    3.17054E+00
 5.60779E+00    6.00621E+00
 5.80058E+00    7.49755E+00
 6.00000E+00    9.04015E+00
 6.23574E+00    1.20236E+01
 6.48074E+00    1.51243E+01
 6.73537E+00    1.83469E+01
 7.00000E+00    2.16960E+01
 8.00000E+00    3.52558E+01
 9.00000E+00    4.42960E+01
 1.00000E+01    5.24320E+01
 1.10000E+01    6.14720E+01
 1.20000E+01    6.96084E+01
 1.30000E+01    7.77545E+01
 1.40000E+01    8.32888E+01
 1.50000E+01    8.71962E+01
 1.60000E+01    9.21429E+01
 1.70000E+01    9.80732E+01
 1.80000E+01    1.03035E+02
 1.90000E+01    1.05989E+02
 2.00000E+01    1.09300E+02
