# n + Zn 67 : (n,xn)    
# jendl4.0   N.Iwamoto                         EVAL-Dec09
# 
# # energies =    83
#   E(MeV)        xs(mb) 
 9.47183E-02    0.00000E+00
 1.00000E-01    7.83400E+00
 1.05000E-01    1.04217E+01
 1.10000E-01    1.30094E+01
 1.20000E-01    1.83795E+01
 1.30000E-01    2.37440E+01
 1.40000E-01    2.88715E+01
 1.50000E-01    3.39412E+01
 1.60000E-01    3.89913E+01
 1.70000E-01    4.40861E+01
 1.80000E-01    4.91973E+01
 1.87361E-01    5.30210E+01
 1.90000E-01    1.50559E+02
 2.00000E-01    2.14187E+02
 2.25000E-01    2.68578E+02
 2.50000E-01    2.99060E+02
 2.75000E-01    3.23918E+02
 3.00000E-01    3.47457E+02
 3.99462E-01    4.17193E+02
 4.00000E-01    4.29505E+02
 5.00000E-01    5.57774E+02
 6.00000E-01    6.31135E+02
 6.13600E-01    6.38849E+02
 7.00000E-01    7.99464E+02
 8.00000E-01    8.91635E+02
 8.27049E-01    9.11140E+02
 8.27050E-01    9.11143E+02
 8.84036E-01    1.04840E+03
 9.00000E-01    1.10007E+03
 9.01080E-01    1.10185E+03
 9.94607E-01    1.24508E+03
 1.00000E+00    1.26702E+03
 1.00492E+00    1.27521E+03
 1.07598E+00    1.34190E+03
 1.10000E+00    1.36482E+03
 1.16003E+00    1.40312E+03
 1.20000E+00    1.42754E+03
 1.30000E+00    1.47389E+03
 1.40000E+00    1.52124E+03
 1.50000E+00    1.56061E+03
 1.60000E+00    1.59047E+03
 1.70000E+00    1.61198E+03
 1.80000E+00    1.62725E+03
 1.90000E+00    1.63743E+03
 2.00000E+00    1.64357E+03
 2.25000E+00    1.66707E+03
 2.50000E+00    1.68074E+03
 2.75000E+00    1.70262E+03
 3.00000E+00    1.71815E+03
 3.50000E+00    1.74318E+03
 4.00000E+00    1.74961E+03
 4.50000E+00    1.74106E+03
 5.00000E+00    1.72120E+03
 5.50000E+00    1.69458E+03
 6.00000E+00    1.66532E+03
 6.50000E+00    1.63713E+03
 7.00000E+00    1.61292E+03
 7.50000E+00    1.61111E+03
 8.00000E+00    1.66883E+03
 8.50000E+00    1.76420E+03
 9.00000E+00    1.89327E+03
 9.50000E+00    2.02555E+03
 1.00000E+01    2.14052E+03
 1.05000E+01    2.24114E+03
 1.10000E+01    2.34401E+03
 1.15000E+01    2.43019E+03
 1.20000E+01    2.50332E+03
 1.25000E+01    2.55026E+03
 1.30000E+01    2.58658E+03
 1.35000E+01    2.60775E+03
 1.40000E+01    2.62225E+03
 1.45000E+01    2.62967E+03
 1.50000E+01    2.63624E+03
 1.55000E+01    2.63287E+03
 1.60000E+01    2.63032E+03
 1.65000E+01    2.61839E+03
 1.70000E+01    2.60808E+03
 1.75000E+01    2.59075E+03
 1.80000E+01    2.57540E+03
 1.85000E+01    2.55548E+03
 1.90000E+01    2.53743E+03
 1.95000E+01    2.52141E+03
 2.00000E+01    2.51647E+03
