# n + Cd108 : (n,xa)    
# jendl4.0   S.Kunieda, A.Ichihara, K.Shibata+ EVAL-FEB22
# 
# # energies =    66
#   E(MeV)        xs(mb) 
 6.38903E-01    1.72147E-04
 6.50000E-01    1.74100E-04
 7.00000E-01    1.55800E-04
 7.50000E-01    1.66500E-04
 8.00000E-01    1.86200E-04
 8.50000E-01    2.16400E-04
 9.00000E-01    2.52500E-04
 9.50000E-01    3.01300E-04
 1.00000E+00    3.57300E-04
 1.20000E+00    7.40500E-04
 1.40000E+00    1.54500E-03
 1.52256E+00    2.48382E-03
 1.60000E+00    3.07700E-03
 1.61681E+00    3.23631E-03
 1.73673E+00    4.37256E-03
 1.80000E+00    4.97200E-03
 1.93132E+00    7.15250E-03
 2.00000E+00    8.29300E-03
 2.16591E+00    1.28779E-02
 2.18294E+00    1.33485E-02
 2.20000E+00    1.38200E-02
 2.22281E+00    1.44323E-02
 2.26028E+00    1.54386E-02
 2.38789E+00    1.88647E-02
 2.39676E+00    1.91029E-02
 2.40000E+00    1.91900E-02
 2.50954E+00    2.35388E-02
 2.56514E+00    2.57459E-02
 2.57912E+00    2.63009E-02
 2.58920E+00    2.67012E-02
 2.60000E+00    2.71300E-02
 2.62597E+00    2.84908E-02
 2.64446E+00    2.94598E-02
 2.67035E+00    3.08164E-02
 2.70302E+00    3.25284E-02
 2.71312E+00    3.30573E-02
 2.80000E+00    3.76100E-02
 3.00000E+00    4.73700E-02
 3.25000E+00    6.04400E-02
 3.50000E+00    8.15900E-02
 3.75000E+00    1.08200E-01
 4.00000E+00    1.43800E-01
 4.25000E+00    1.90600E-01
 4.50000E+00    2.46000E-01
 4.75000E+00    3.20800E-01
 5.00000E+00    4.01500E-01
 5.50000E+00    6.21400E-01
 6.00000E+00    9.10900E-01
 6.50000E+00    1.26600E+00
 7.00000E+00    1.68800E+00
 7.50000E+00    2.16303E+00
 8.00000E+00    2.69230E+00
 8.50000E+00    3.26315E+00
 9.00000E+00    3.91794E+00
 9.50000E+00    4.71863E+00
 1.00000E+01    5.77330E+00
 1.10000E+01    8.90830E+00
 1.20000E+01    1.31910E+01
 1.30000E+01    1.90000E+01
 1.40000E+01    2.62220E+01
 1.50000E+01    3.44700E+01
 1.60000E+01    4.33450E+01
 1.70000E+01    5.22700E+01
 1.80000E+01    6.08800E+01
 1.90000E+01    6.88800E+01
 2.00000E+01    7.61100E+01
