# n + Fe 54 : (n,a02)   
# endfb8.0   Nobre, Brown, Herman, Arcilla+    EVAL-DEC17
# uncertainties: n
# # energies =    79
#   E(MeV)       xs(mb) 
 1.00000E-03    0.00000E+00
 2.55000E+00    2.57990E-07
 2.70000E+00    3.65619E-06
 2.80000E+00    7.82619E-06
 3.00000E+00    3.35732E-05
 3.20000E+00    1.14085E-04
 3.50000E+00    5.54835E-04
 3.60000E+00    9.00264E-04
 3.80000E+00    2.26387E-03
 4.00000E+00    5.12917E-03
 4.15000E+00    8.78126E-03
 4.30000E+00    1.47948E-02
 4.40000E+00    2.01730E-02
 4.50000E+00    2.68199E-02
 4.60000E+00    3.57881E-02
 4.70000E+00    4.63070E-02
 4.80000E+00    5.96724E-02
 5.00000E+00    9.95676E-02
 5.20000E+00    1.56136E-01
 5.40000E+00    2.37177E-01
 5.50000E+00    2.87062E-01
 5.70000E+00    4.15140E-01
 6.00000E+00    6.73578E-01
 6.30000E+00    1.02115E+00
 6.50000E+00    1.29548E+00
 6.70000E+00    1.58853E+00
 7.00000E+00    2.01899E+00
 7.25000E+00    2.33474E+00
 7.50000E+00    2.55333E+00
 8.00000E+00    2.68479E+00
 8.50000E+00    2.44211E+00
 9.00000E+00    2.00093E+00
 9.50000E+00    1.53134E+00
 1.00000E+01    1.13146E+00
 1.05000E+01    8.26481E-01
 1.10000E+01    5.98402E-01
 1.12500E+01    5.09286E-01
 1.15000E+01    4.31046E-01
 1.20000E+01    3.07057E-01
 1.25000E+01    2.16662E-01
 1.30000E+01    1.51232E-01
 1.35000E+01    1.03697E-01
 1.40000E+01    7.06912E-02
 1.45000E+01    4.73463E-02
 1.50000E+01    3.16262E-02
 1.56000E+01    1.93028E-02
 1.60000E+01    1.39059E-02
 1.65000E+01    9.38879E-03
 1.72000E+01    5.43188E-03
 1.80000E+01    3.02533E-03
 1.90000E+01    1.47230E-03
 2.00000E+01    7.16154E-04
 2.10000E+01    3.36354E-04
 2.20000E+01    1.46519E-04
 2.40000E+01    3.16202E-05
 2.57000E+01    8.87625E-06
 2.80000E+01    1.57599E-06
 3.00000E+01    3.66470E-07
 3.20000E+01    8.98080E-08
 3.40000E+01    1.38860E-08
 3.60000E+01    3.16810E-09
 3.80000E+01    7.58650E-10
 4.00000E+01    2.01150E-10
 4.50000E+01    7.53790E-12
 5.00000E+01    8.05310E-14
 5.50000E+01    4.02640E-15
 6.00000E+01    2.68010E-16
 6.50000E+01    3.31270E-18
 7.00000E+01    2.43060E-19
 7.50000E+01    2.92960E-20
 8.00000E+01    7.73920E-21
 9.00000E+01    9.90760E-23
 9.60000E+01    1.49090E-22
 1.00000E+02    3.57960E-23
 1.10000E+02    7.26520E-25
 1.20000E+02    7.71850E-24
 1.30000E+02    4.42080E-24
 1.40000E+02    1.04680E-24
 1.50000E+02    9.02970E-26
