# n + Fe 54 : (n,xg)    
# endfb8.0   Nobre, Brown, Herman, Arcilla+    EVAL-DEC17
# 
# # energies =    96
#   E(MeV)        xs(mb) 
 1.43452E+00    8.89854E-05
 1.50000E+00    9.30470E-05
 1.60000E+00    9.92502E-05
 1.70000E+00    1.05453E-04
 1.80000E+00    1.11656E-04
 1.90000E+00    1.17860E-04
 2.00000E+00    1.24063E-04
 2.40000E+00    1.48875E-04
 2.52450E+00    1.56598E-04
 2.55000E+00    1.58180E-04
 2.58556E+00    1.60386E-04
 2.60920E+00    1.61852E-04
 2.70000E+00    1.67485E-04
 2.80000E+00    1.73688E-04
 3.00000E+00    1.86094E-04
 3.00435E+00    1.86364E-04
 3.01433E+00    1.86983E-04
 3.20000E+00    1.98500E-04
 3.22520E+00    2.00064E-04
 3.35641E+00    2.08203E-04
 3.40735E+00    2.11362E-04
 3.50000E+00    2.17110E-04
 3.50168E+00    2.17214E-04
 3.60000E+00    2.23313E-04
 3.80000E+00    2.35719E-04
 3.86474E+00    2.39735E-04
 4.00000E+00    2.48125E-04
 4.15000E+00    2.57430E-04
 4.30000E+00    2.66735E-04
 4.40000E+00    2.72938E-04
 4.50000E+00    2.79141E-04
 4.60000E+00    2.85344E-04
 4.70000E+00    2.91547E-04
 4.80000E+00    2.97751E-04
 5.00000E+00    3.10157E-04
 5.20000E+00    3.22563E-04
 5.40000E+00    3.34969E-04
 5.50000E+00    3.41172E-04
 5.70000E+00    3.53581E-04
 6.00000E+00    1.75363E-03
 6.30000E+00    7.12071E-03
 6.50000E+00    1.64836E-02
 6.70000E+00    3.56141E-02
 7.00000E+00    1.01122E-01
 7.25000E+00    2.21526E-01
 7.50000E+00    4.49255E-01
 8.00000E+00    1.54624E+00
 8.50000E+00    4.31130E+00
 9.00000E+00    9.99815E+00
 9.50000E+00    1.96489E+01
 1.00000E+01    3.33808E+01
 1.05000E+01    5.07695E+01
 1.10000E+01    7.21915E+01
 1.12500E+01    8.59455E+01
 1.15000E+01    1.01828E+02
 1.20000E+01    1.40242E+02
 1.25000E+01    1.86960E+02
 1.30000E+01    2.42345E+02
 1.35000E+01    3.03306E+02
 1.40000E+01    3.68698E+02
 1.45000E+01    4.40119E+02
 1.50000E+01    5.09620E+02
 1.56000E+01    5.96340E+02
 1.60000E+01    6.52383E+02
 1.65000E+01    7.23700E+02
 1.72000E+01    8.18703E+02
 1.80000E+01    9.10847E+02
 1.90000E+01    1.01016E+03
 2.00000E+01    1.09068E+03
 2.10000E+01    1.16194E+03
 2.20000E+01    1.22768E+03
 2.40000E+01    1.29037E+03
 2.57000E+01    1.32156E+03
 2.80000E+01    1.33279E+03
 3.00000E+01    1.33118E+03
 3.20000E+01    1.33458E+03
 3.40000E+01    1.35650E+03
 3.60000E+01    1.40010E+03
 3.80000E+01    1.43389E+03
 4.00000E+01    1.45265E+03
 4.50000E+01    1.46823E+03
 5.00000E+01    1.46848E+03
 5.50000E+01    1.50806E+03
 6.00000E+01    1.53574E+03
 6.50000E+01    1.54900E+03
 7.00000E+01    1.56460E+03
 7.50000E+01    1.55429E+03
 8.00000E+01    1.55638E+03
 9.00000E+01    1.52753E+03
 9.60000E+01    1.52064E+03
 1.00000E+02    1.51435E+03
 1.10000E+02    1.49790E+03
 1.20000E+02    1.48480E+03
 1.30000E+02    1.46072E+03
 1.40000E+02    1.44433E+03
 1.50000E+02    1.42364E+03
