# n + La  0 : (n,d)
# jendl.ad   N.Iwamoto                         EVAL-Apr14
# uncertainties: n
# # energies =    64
#   E(MeV)          xs(mb) 
 4.06344E+00    7.62531E-22
 5.50000E+00    6.45511E-14
 5.50968E+00    2.89736E-12
 5.97583E+00    1.43740E-10
 6.00000E+00    1.51045E-10
 6.16916E+00    6.07159E-09
 6.26928E+00    9.57571E-09
 6.28254E+00    1.00399E-08
 6.29744E+00    1.05609E-08
 6.38778E+00    1.37228E-08
 6.42043E+00    1.48658E-08
 6.49639E+00    1.75247E-08
 6.50000E+00    1.76507E-08
 6.52682E+00    3.95064E-08
 6.66500E+00    1.52111E-07
 6.66537E+00    1.52410E-07
 6.72208E+00    1.98617E-07
 6.86301E+00    3.13463E-07
 6.87799E+00    3.25670E-07
 6.93569E+00    3.72686E-07
 6.96511E+00    3.96659E-07
 6.98450E+00    4.12465E-07
 7.00000E+00    4.25091E-07
 7.00112E+00    4.32698E-07
 7.01617E+00    5.34830E-07
 7.07631E+00    9.42976E-07
 7.13569E+00    1.34597E-06
 7.24100E+00    2.06067E-06
 7.24983E+00    2.12059E-06
 7.27039E+00    2.26012E-06
 7.32953E+00    2.66148E-06
 7.34461E+00    2.76382E-06
 7.39687E+00    3.11849E-06
 7.42665E+00    3.32060E-06
 7.44038E+00    3.41378E-06
 7.44743E+00    3.46162E-06
 7.45433E+00    3.50845E-06
 7.46449E+00    3.57741E-06
 7.50000E+00    3.81840E-06
 8.00000E+00    1.81240E-05
 8.50000E+00    6.03316E-05
 9.00000E+00    2.01397E-04
 9.50000E+00    8.20043E-04
 1.00000E+01    3.37965E-03
 1.05000E+01    1.19763E-02
 1.10000E+01    3.52543E-02
 1.15000E+01    8.76872E-02
 1.20000E+01    1.87526E-01
 1.25000E+01    3.53728E-01
 1.30000E+01    5.98824E-01
 1.35000E+01    9.29535E-01
 1.40000E+01    1.34297E+00
 1.45000E+01    1.83309E+00
 1.50000E+01    2.38998E+00
 1.55000E+01    2.92804E+00
 1.60000E+01    3.64580E+00
 1.65000E+01    4.24349E+00
 1.70000E+01    5.10327E+00
 1.75000E+01    5.79656E+00
 1.80000E+01    6.52996E+00
 1.85000E+01    7.27935E+00
 1.90000E+01    7.89315E+00
 1.95000E+01    8.65038E+00
 2.00000E+01    9.39869E+00
