# n + Pb207 : (n,xa)    
# jendl4.0   O.Iwamoto, N.Iwamoto              EVAL-MAR10
# 
# # energies =    62
#   E(MeV)        xs(mb) 
 1.50000E-01    7.40158E-06
 2.00000E-01    2.72058E-06
 3.00000E-01    3.48017E-06
 4.00000E-01    2.93725E-06
 5.00000E-01    2.09709E-06
 5.72479E-01    2.09631E-06
 6.00000E-01    2.09631E-06
 7.00000E-01    1.32176E-06
 8.00000E-01    1.65160E-06
 9.00000E-01    2.16523E-06
 9.02175E-01    2.17724E-06
 1.00000E+00    2.64918E-06
 1.20000E+00    4.56897E-06
 1.40000E+00    8.29587E-06
 1.50000E+00    1.12565E-05
 1.60000E+00    1.52432E-05
 1.64133E+00    1.72750E-05
 1.80000E+00    2.56025E-05
 2.00000E+00    4.47070E-05
 2.35135E+00    1.15989E-04
 2.50000E+00    1.65369E-04
 2.63628E+00    2.29110E-04
 2.63629E+00    2.29115E-04
 2.67537E+00    2.49535E-04
 2.67538E+00    2.49541E-04
 2.71517E+00    2.70667E-04
 2.74029E+00    2.84005E-04
 3.00000E+00    4.60858E-04
 3.50000E+00    1.08677E-03
 4.00000E+00    2.21930E-03
 4.50000E+00    3.93969E-03
 5.00000E+00    6.23557E-03
 5.50000E+00    9.03352E-03
 6.00000E+00    1.22467E-02
 6.50000E+00    1.58475E-02
 7.00000E+00    1.98129E-02
 7.50000E+00    2.41608E-02
 8.00000E+00    2.88714E-02
 8.50000E+00    3.40239E-02
 9.00000E+00    3.96510E-02
 9.50000E+00    4.59715E-02
 1.00000E+01    5.34345E-02
 1.05000E+01    6.26670E-02
 1.10000E+01    7.65881E-02
 1.15000E+01    9.53948E-02
 1.20000E+01    1.24820E-01
 1.25000E+01    1.67920E-01
 1.30000E+01    2.30835E-01
 1.35000E+01    3.19503E-01
 1.40000E+01    4.40216E-01
 1.45000E+01    5.97823E-01
 1.50000E+01    7.98029E-01
 1.55000E+01    1.04146E+00
 1.60000E+01    1.33019E+00
 1.65000E+01    1.65930E+00
 1.70000E+01    2.02749E+00
 1.75000E+01    2.42891E+00
 1.80000E+01    2.86393E+00
 1.85000E+01    3.32304E+00
 1.90000E+01    3.80417E+00
 1.95000E+01    4.30523E+00
 2.00000E+01    4.81871E+00
