# n + Os184 : (n,xn)    
# jendl.ad   N.Iwamoto                         EVAL-Apr14
# 
# # energies =    91
#   E(MeV)        xs(mb) 
 1.05000E-01    3.14011E-26
 1.10000E-01    6.68262E-03
 1.20000E-01    8.33151E-03
 1.20457E-01    8.40431E-03
 1.30000E-01    1.53132E+02
 1.40000E-01    2.14008E+02
 1.50000E-01    2.71414E+02
 1.60000E-01    3.38290E+02
 1.70000E-01    3.93881E+02
 1.80000E-01    4.47363E+02
 1.90000E-01    4.98141E+02
 2.00000E-01    5.47170E+02
 2.25000E-01    6.63740E+02
 2.50000E-01    7.71195E+02
 2.75000E-01    8.73730E+02
 3.00000E-01    9.65829E+02
 3.85874E-01    1.24405E+03
 4.00000E-01    1.28316E+03
 5.00000E-01    1.52675E+03
 6.00000E-01    1.71072E+03
 7.00000E-01    1.84515E+03
 7.78385E-01    1.92060E+03
 8.00000E-01    1.93355E+03
 9.00000E-01    1.98782E+03
 9.47950E-01    2.01137E+03
 1.00000E+00    2.11632E+03
 1.04771E+00    2.15769E+03
 1.08695E+00    2.23180E+03
 1.10000E+00    2.26041E+03
 1.20000E+00    2.34519E+03
 1.21462E+00    2.35322E+03
 1.23176E+00    2.37367E+03
 1.28185E+00    2.40433E+03
 1.30000E+00    2.41329E+03
 1.40000E+00    2.45273E+03
 1.41441E+00    2.45728E+03
 1.43613E+00    2.46912E+03
 1.45365E+00    2.47501E+03
 1.50000E+00    2.50583E+03
 1.50886E+00    2.50967E+03
 1.55241E+00    2.53479E+03
 1.60000E+00    2.55633E+03
 1.62203E+00    2.56380E+03
 1.62961E+00    2.56729E+03
 1.64050E+00    2.57241E+03
 1.64668E+00    2.57917E+03
 1.70000E+00    2.60727E+03
 1.70729E+00    2.60965E+03
 1.71693E+00    2.61801E+03
 1.72759E+00    2.62625E+03
 1.80000E+00    2.65262E+03
 1.90000E+00    2.67977E+03
 2.00000E+00    2.70581E+03
 2.25000E+00    2.76961E+03
 2.50000E+00    2.79436E+03
 2.75000E+00    2.82705E+03
 3.00000E+00    2.84110E+03
 3.50000E+00    2.86325E+03
 4.00000E+00    2.87339E+03
 4.50000E+00    2.87263E+03
 5.00000E+00    2.86205E+03
 5.50000E+00    2.83988E+03
 6.00000E+00    2.81170E+03
 6.50000E+00    2.77946E+03
 7.00000E+00    2.74913E+03
 7.50000E+00    2.72306E+03
 8.00000E+00    2.70324E+03
 8.50000E+00    2.68890E+03
 9.00000E+00    2.70005E+03
 9.50000E+00    2.89063E+03
 1.00000E+01    3.15563E+03
 1.05000E+01    3.38246E+03
 1.10000E+01    3.55270E+03
 1.15000E+01    3.67648E+03
 1.20000E+01    3.76632E+03
 1.25000E+01    3.83207E+03
 1.30000E+01    3.88055E+03
 1.35000E+01    3.91647E+03
 1.40000E+01    3.94323E+03
 1.45000E+01    3.96249E+03
 1.50000E+01    3.97589E+03
 1.55000E+01    3.98442E+03
 1.60000E+01    3.98613E+03
 1.65000E+01    3.98810E+03
 1.70000E+01    4.00729E+03
 1.75000E+01    4.06005E+03
 1.80000E+01    4.14254E+03
 1.85000E+01    4.24437E+03
 1.90000E+01    4.35798E+03
 1.95000E+01    4.47726E+03
 2.00000E+01    4.59781E+03
