# n + Os184 : (n,xa)    
# jendl.ad   N.Iwamoto                         EVAL-Apr14
# 
# # energies =    91
#   E(MeV)        xs(mb) 
 1.05000E-01    1.03384E-02
 1.10000E-01    1.05735E-02
 1.20000E-01    1.06188E-02
 1.20457E-01    1.06209E-02
 1.30000E-01    8.62394E-03
 1.40000E-01    8.17450E-03
 1.50000E-01    7.84025E-03
 1.60000E-01    7.55425E-03
 1.70000E-01    7.33733E-03
 1.80000E-01    7.15848E-03
 1.90000E-01    7.00782E-03
 2.00000E-01    6.88595E-03
 2.25000E-01    6.97871E-03
 2.50000E-01    6.87303E-03
 2.75000E-01    6.83166E-03
 3.00000E-01    6.85873E-03
 3.85874E-01    7.53625E-03
 4.00000E-01    7.62907E-03
 5.00000E-01    8.73409E-03
 6.00000E-01    1.02523E-02
 7.00000E-01    1.21731E-02
 7.78385E-01    1.41668E-02
 8.00000E-01    1.46356E-02
 9.00000E-01    1.78095E-02
 9.47950E-01    2.00216E-02
 1.00000E+00    2.01174E-02
 1.04771E+00    2.20731E-02
 1.08695E+00    2.25174E-02
 1.10000E+00    2.23765E-02
 1.20000E+00    2.51582E-02
 1.21462E+00    2.68120E-02
 1.23176E+00    2.65645E-02
 1.28185E+00    2.72969E-02
 1.30000E+00    2.75892E-02
 1.40000E+00    3.13993E-02
 1.41441E+00    3.34772E-02
 1.43613E+00    3.37841E-02
 1.45365E+00    3.42041E-02
 1.50000E+00    3.46430E-02
 1.50886E+00    3.48497E-02
 1.55241E+00    3.72872E-02
 1.60000E+00    3.78048E-02
 1.62203E+00    4.03270E-02
 1.62961E+00    4.04646E-02
 1.64050E+00    4.06236E-02
 1.64668E+00    4.06031E-02
 1.70000E+00    4.14653E-02
 1.70729E+00    4.16178E-02
 1.71693E+00    4.36934E-02
 1.72759E+00    4.37292E-02
 1.80000E+00    4.51788E-02
 1.90000E+00    4.99059E-02
 2.00000E+00    5.46329E-02
 2.25000E+00    6.66546E-02
 2.50000E+00    8.03508E-02
 2.75000E+00    9.41544E-02
 3.00000E+00    1.12252E-01
 3.50000E+00    1.41403E-01
 4.00000E+00    1.70418E-01
 4.50000E+00    1.98282E-01
 5.00000E+00    2.24936E-01
 5.50000E+00    2.51897E-01
 6.00000E+00    2.81717E-01
 6.50000E+00    3.20466E-01
 7.00000E+00    3.79927E-01
 7.50000E+00    4.72039E-01
 8.00000E+00    6.09155E-01
 8.50000E+00    8.04493E-01
 9.00000E+00    1.06941E+00
 9.50000E+00    1.35643E+00
 1.00000E+01    1.68471E+00
 1.05000E+01    2.11229E+00
 1.10000E+01    2.66998E+00
 1.15000E+01    3.36788E+00
 1.20000E+01    4.20269E+00
 1.25000E+01    5.17980E+00
 1.30000E+01    6.28325E+00
 1.35000E+01    7.49935E+00
 1.40000E+01    8.81030E+00
 1.45000E+01    1.01975E+01
 1.50000E+01    1.16423E+01
 1.55000E+01    1.31279E+01
 1.60000E+01    1.46411E+01
 1.65000E+01    1.61684E+01
 1.70000E+01    1.77000E+01
 1.75000E+01    1.92252E+01
 1.80000E+01    2.07365E+01
 1.85000E+01    2.22230E+01
 1.90000E+01    2.36883E+01
 1.95000E+01    2.51259E+01
 2.00000E+01    2.65338E+01
