# n + Yb  0 : (n,xp)
# jendl.ad   kunieda                           EVAL-Mar14
#
# # energies =    91
#   E(MeV)          xs(mb) 
 7.92049E-02    0.00000E+00
 8.00000E-02    0.00000E+00
 9.00000E-02    0.00000E+00
 1.00000E-01    0.00000E+00
 1.50000E-01    0.00000E+00
 2.00000E-01    1.65067E-19
 2.61795E-01    1.37817E-18
 3.00000E-01    2.19835E-18
 4.00000E-01    2.32016E-15
 5.00000E-01    2.73649E-14
 5.43145E-01    1.14582E-13
 6.00000E-01    2.29534E-13
 7.00000E-01    1.52096E-12
 8.00000E-01    8.24185E-12
 9.00000E-01    3.75611E-11
 9.17471E-01    5.67222E-11
 1.00000E+00    1.47322E-10
 1.04903E+00    4.91549E-10
 1.12443E+00    1.02248E-09
 1.16172E+00    1.28615E-09
 1.17927E+00    1.41081E-09
 1.20000E+00    1.55897E-09
 1.20550E+00    1.81806E-09
 1.22889E+00    2.92066E-09
 1.27044E+00    4.88215E-09
 1.29409E+00    6.00045E-09
 1.33850E+00    8.11766E-09
 1.36089E+00    9.18899E-09
 1.37811E+00    1.00130E-08
 1.38388E+00    1.02890E-08
 1.40000E+00    1.10604E-08
 1.41325E+00    1.41410E-08
 1.47448E+00    2.83769E-08
 1.48544E+00    3.09251E-08
 1.50488E+00    3.54449E-08
 1.51904E+00    3.87371E-08
 1.54652E+00    4.51262E-08
 1.54965E+00    4.58539E-08
 1.55824E+00    4.78511E-08
 1.55953E+00    4.81510E-08
 1.55990E+00    4.82371E-08
 1.56672E+00    4.98227E-08
 1.60000E+00    5.75603E-08
 1.60926E+00    6.57424E-08
 1.61793E+00    7.34034E-08
 1.64272E+00    9.53079E-08
 1.65018E+00    1.01900E-07
 1.66752E+00    1.17221E-07
 1.67256E+00    1.21675E-07
 1.67589E+00    1.24617E-07
 1.68035E+00    1.28558E-07
 1.80000E+00    2.34281E-07
 2.00000E+00    7.82194E-07
 2.20000E+00    2.21857E-06
 2.40000E+00    5.49024E-06
 2.70000E+00    1.73132E-05
 3.00000E+00    4.37425E-05
 3.50000E+00    1.49453E-04
 4.00000E+00    3.74017E-04
 4.50000E+00    7.73912E-04
 5.00000E+00    1.41780E-03
 5.50000E+00    2.41377E-03
 6.00000E+00    4.24146E-03
 6.50000E+00    7.70120E-03
 7.00000E+00    1.47487E-02
 7.50000E+00    2.89499E-02
 8.00000E+00    5.65993E-02
 8.50000E+00    1.07096E-01
 9.00000E+00    1.93650E-01
 9.50000E+00    3.35340E-01
 1.00000E+01    5.56215E-01
 1.05000E+01    8.80432E-01
 1.10000E+01    1.33732E+00
 1.15000E+01    1.95358E+00
 1.20000E+01    2.74786E+00
 1.25000E+01    3.73372E+00
 1.30000E+01    4.90731E+00
 1.35000E+01    6.28364E+00
 1.40000E+01    7.85187E+00
 1.45000E+01    9.59443E+00
 1.50000E+01    1.15144E+01
 1.55000E+01    1.36079E+01
 1.60000E+01    1.58584E+01
 1.65000E+01    1.82633E+01
 1.70000E+01    2.08205E+01
 1.75000E+01    2.35557E+01
 1.80000E+01    2.64437E+01
 1.85000E+01    2.94724E+01
 1.90000E+01    3.26460E+01
 1.95000E+01    3.59479E+01
 2.00000E+01    3.93792E+01
