# n + Yb  0 : (n,xn)
# jendl.ad   kunieda                           EVAL-Mar14
#
# # energies =    91
#   E(MeV)          xs(mb) 
 7.92049E-02    5.11959E+02
 8.00000E-02    6.48794E+02
 9.00000E-02    7.66971E+02
 1.00000E-01    8.26969E+02
 1.50000E-01    1.10859E+03
 2.00000E-01    1.41964E+03
 2.61795E-01    1.78161E+03
 3.00000E-01    1.97230E+03
 4.00000E-01    2.36019E+03
 5.00000E-01    2.61591E+03
 5.43145E-01    2.67949E+03
 6.00000E-01    2.74331E+03
 7.00000E-01    2.75639E+03
 8.00000E-01    2.69594E+03
 9.00000E-01    2.59731E+03
 9.17471E-01    2.57799E+03
 1.00000E+00    2.48579E+03
 1.04903E+00    2.43220E+03
 1.12443E+00    2.38663E+03
 1.16172E+00    2.40624E+03
 1.17927E+00    2.43410E+03
 1.20000E+00    2.44221E+03
 1.20550E+00    2.43997E+03
 1.22889E+00    2.44153E+03
 1.27044E+00    2.42914E+03
 1.29409E+00    2.41856E+03
 1.33850E+00    2.40207E+03
 1.36089E+00    2.39460E+03
 1.37811E+00    2.38895E+03
 1.38388E+00    2.38758E+03
 1.40000E+00    2.38414E+03
 1.41325E+00    2.38235E+03
 1.47448E+00    2.37872E+03
 1.48544E+00    2.38622E+03
 1.50488E+00    2.39402E+03
 1.51904E+00    2.39677E+03
 1.54652E+00    2.39181E+03
 1.54965E+00    2.39109E+03
 1.55824E+00    2.38902E+03
 1.55953E+00    2.39002E+03
 1.55990E+00    2.39008E+03
 1.56672E+00    2.38988E+03
 1.60000E+00    2.38249E+03
 1.60926E+00    2.38085E+03
 1.61793E+00    2.38132E+03
 1.64272E+00    2.38257E+03
 1.65018E+00    2.38161E+03
 1.66752E+00    2.37894E+03
 1.67256E+00    2.37816E+03
 1.67589E+00    2.37865E+03
 1.68035E+00    2.37823E+03
 1.80000E+00    2.36054E+03
 2.00000E+00    2.34250E+03
 2.20000E+00    2.32486E+03
 2.40000E+00    2.30674E+03
 2.70000E+00    2.27830E+03
 3.00000E+00    2.25061E+03
 3.50000E+00    2.21392E+03
 4.00000E+00    2.20230E+03
 4.50000E+00    2.22498E+03
 5.00000E+00    2.28073E+03
 5.50000E+00    2.35380E+03
 6.00000E+00    2.41945E+03
 6.50000E+00    2.46002E+03
 7.00000E+00    2.50502E+03
 7.50000E+00    2.69934E+03
 8.00000E+00    2.88358E+03
 8.50000E+00    3.09794E+03
 9.00000E+00    3.55616E+03
 9.50000E+00    3.93727E+03
 1.00000E+01    4.18802E+03
 1.05000E+01    4.32331E+03
 1.10000E+01    4.40317E+03
 1.15000E+01    4.46138E+03
 1.20000E+01    4.49711E+03
 1.25000E+01    4.52154E+03
 1.30000E+01    4.53025E+03
 1.35000E+01    4.52967E+03
 1.40000E+01    4.52239E+03
 1.45000E+01    4.50948E+03
 1.50000E+01    4.50133E+03
 1.55000E+01    4.49323E+03
 1.60000E+01    4.52140E+03
 1.65000E+01    4.65102E+03
 1.70000E+01    4.83347E+03
 1.75000E+01    5.04985E+03
 1.80000E+01    5.28347E+03
 1.85000E+01    5.45002E+03
 1.90000E+01    5.59376E+03
 1.95000E+01    5.71946E+03
 2.00000E+01    5.81807E+03
