# n + Yb  0 : (n,xa)
# jendl.ad   kunieda                           EVAL-Mar14
#
# # energies =    91
#   E(MeV)          xs(mb) 
 7.92049E-02    0.00000E+00
 8.00000E-02    0.00000E+00
 9.00000E-02    0.00000E+00
 1.00000E-01    0.00000E+00
 1.50000E-01    0.00000E+00
 2.00000E-01    0.00000E+00
 2.61795E-01    0.00000E+00
 3.00000E-01    0.00000E+00
 4.00000E-01    0.00000E+00
 5.00000E-01    0.00000E+00
 5.43145E-01    0.00000E+00
 6.00000E-01    0.00000E+00
 7.00000E-01    0.00000E+00
 8.00000E-01    0.00000E+00
 9.00000E-01    0.00000E+00
 9.17471E-01    1.57072E-10
 1.00000E+00    8.99044E-10
 1.04903E+00    3.55550E-08
 1.12443E+00    8.88502E-08
 1.16172E+00    1.15208E-07
 1.17927E+00    1.27613E-07
 1.20000E+00    1.42266E-07
 1.20550E+00    1.49938E-07
 1.22889E+00    1.82565E-07
 1.27044E+00    2.40524E-07
 1.29409E+00    2.73513E-07
 1.33850E+00    3.35462E-07
 1.36089E+00    3.66694E-07
 1.37811E+00    3.90714E-07
 1.38388E+00    3.98763E-07
 1.40000E+00    4.21249E-07
 1.41325E+00    4.49419E-07
 1.47448E+00    5.79598E-07
 1.48544E+00    6.02900E-07
 1.50488E+00    6.44230E-07
 1.51904E+00    6.74335E-07
 1.54652E+00    7.32759E-07
 1.54965E+00    7.39414E-07
 1.55824E+00    7.57677E-07
 1.55953E+00    7.60419E-07
 1.55990E+00    7.61206E-07
 1.56672E+00    7.75706E-07
 1.60000E+00    8.46461E-07
 1.60926E+00    8.76426E-07
 1.61793E+00    9.04482E-07
 1.64272E+00    9.84703E-07
 1.65018E+00    1.00884E-06
 1.66752E+00    1.06496E-06
 1.67256E+00    1.08126E-06
 1.67589E+00    1.09204E-06
 1.68035E+00    1.10647E-06
 1.80000E+00    1.49366E-06
 2.00000E+00    4.37884E-06
 2.20000E+00    9.86173E-06
 2.40000E+00    1.71139E-05
 2.70000E+00    3.22990E-05
 3.00000E+00    5.48934E-05
 3.50000E+00    1.20012E-04
 4.00000E+00    2.35422E-04
 4.50000E+00    4.28206E-04
 5.00000E+00    7.28776E-04
 5.50000E+00    1.14436E-03
 6.00000E+00    1.73999E-03
 6.50000E+00    2.61123E-03
 7.00000E+00    3.89967E-03
 7.50000E+00    6.06521E-03
 8.00000E+00    9.68874E-03
 8.50000E+00    1.60327E-02
 9.00000E+00    2.72814E-02
 9.50000E+00    4.47959E-02
 1.00000E+01    7.21440E-02
 1.05000E+01    1.14411E-01
 1.10000E+01    1.74617E-01
 1.15000E+01    2.56533E-01
 1.20000E+01    3.64239E-01
 1.25000E+01    4.97443E-01
 1.30000E+01    6.57496E-01
 1.35000E+01    8.44425E-01
 1.40000E+01    1.05695E+00
 1.45000E+01    1.29170E+00
 1.50000E+01    1.54422E+00
 1.55000E+01    1.81097E+00
 1.60000E+01    2.09128E+00
 1.65000E+01    2.37926E+00
 1.70000E+01    2.67214E+00
 1.75000E+01    2.96818E+00
 1.80000E+01    3.26456E+00
 1.85000E+01    3.55976E+00
 1.90000E+01    3.85303E+00
 1.95000E+01    4.14004E+00
 2.00000E+01    4.42230E+00
