# n + W 184 : (n,xa)    
# jendl4.0   N.Iwamoto                         EVAL-Feb10
# 
# # energies =   100
#   E(MeV)        xs(mb) 
 1.05000E-01    4.90794E-06
 1.10000E-01    4.93419E-06
 1.11818E-01    4.94373E-06
 1.20000E-01    3.55200E-06
 1.30000E-01    3.30334E-06
 1.40000E-01    3.14367E-06
 1.50000E-01    3.06474E-06
 1.60000E-01    2.98913E-06
 1.70000E-01    2.92871E-06
 1.80000E-01    2.88870E-06
 1.90000E-01    2.86095E-06
 2.00000E-01    2.84745E-06
 2.25000E-01    2.86556E-06
 2.50000E-01    2.96515E-06
 2.75000E-01    3.06474E-06
 3.00000E-01    3.19551E-06
 3.66052E-01    3.73927E-06
 4.00000E-01    4.01874E-06
 5.00000E-01    5.18734E-06
 6.00000E-01    6.97154E-06
 7.00000E-01    9.50614E-06
 7.52413E-01    1.13067E-05
 8.00000E-01    1.31306E-05
 9.00000E-01    1.82704E-05
 9.08234E-01    1.87395E-05
 1.00000E+00    2.31882E-05
 1.00798E+00    2.36707E-05
 1.01149E+00    2.37015E-05
 1.10000E+00    2.85981E-05
 1.12759E+00    3.04585E-05
 1.13623E+00    3.06291E-05
 1.14006E+00    3.02995E-05
 1.20000E+00    3.34830E-05
 1.22799E+00    3.52143E-05
 1.25917E+00    3.73192E-05
 1.29064E+00    3.94437E-05
 1.29204E+00    3.93315E-05
 1.30000E+00    3.96306E-05
 1.30202E+00    3.97065E-05
 1.32938E+00    4.14052E-05
 1.35276E+00    4.37745E-05
 1.36783E+00    4.45082E-05
 1.39391E+00    4.62576E-05
 1.40000E+00    4.63746E-05
 1.43280E+00    4.85624E-05
 1.43885E+00    4.88418E-05
 1.45419E+00    5.06541E-05
 1.48510E+00    5.27391E-05
 1.50000E+00    5.38275E-05
 1.50018E+00    5.38417E-05
 1.50977E+00    5.45960E-05
 1.53163E+00    5.63098E-05
 1.54529E+00    5.73774E-05
 1.57885E+00    6.19426E-05
 1.59012E+00    6.26816E-05
 1.60000E+00    6.35933E-05
 1.62241E+00    6.56612E-05
 1.62372E+00    6.56577E-05
 1.70000E+00    7.44656E-05
 1.80000E+00    8.85385E-05
 1.90000E+00    1.04419E-04
 2.00000E+00    1.22568E-04
 2.25000E+00    1.71543E-04
 2.50000E+00    2.57103E-04
 2.75000E+00    3.39397E-04
 3.00000E+00    4.69244E-04
 3.50000E+00    7.72562E-04
 4.00000E+00    1.16499E-03
 4.50000E+00    1.63951E-03
 5.00000E+00    2.18506E-03
 5.50000E+00    2.79444E-03
 6.00000E+00    3.48144E-03
 6.50000E+00    4.31833E-03
 7.00000E+00    5.49227E-03
 7.50000E+00    7.42086E-03
 8.00000E+00    9.99185E-03
 8.50000E+00    1.30826E-02
 9.00000E+00    1.79611E-02
 9.50000E+00    2.58422E-02
 1.00000E+01    3.81181E-02
 1.05000E+01    5.67021E-02
 1.10000E+01    8.38971E-02
 1.15000E+01    1.23668E-01
 1.20000E+01    1.79529E-01
 1.25000E+01    2.55502E-01
 1.30000E+01    3.55322E-01
 1.35000E+01    4.81935E-01
 1.40000E+01    6.37137E-01
 1.45000E+01    8.21411E-01
 1.50000E+01    1.03395E+00
 1.55000E+01    1.27281E+00
 1.60000E+01    1.53546E+00
 1.65000E+01    1.81865E+00
 1.70000E+01    2.11901E+00
 1.75000E+01    2.43324E+00
 1.80000E+01    2.75830E+00
 1.85000E+01    3.09136E+00
 1.90000E+01    3.42998E+00
 1.95000E+01    3.77198E+00
 2.00000E+01    4.11532E+00
