# n + W 184 : (n,n'06)  
# jendl4.0   N.Iwamoto                         EVAL-Feb10
# uncertainties: n
# # energies =    73
#   E(MeV)       xs(mb) 
 1.01149E+00    0.00000E+00
 1.10000E+00    1.07167E+02
 1.12759E+00    1.23667E+02
 1.13623E+00    1.25715E+02
 1.14006E+00    1.26248E+02
 1.20000E+00    1.48966E+02
 1.22799E+00    1.59436E+02
 1.25917E+00    1.67435E+02
 1.29064E+00    1.75633E+02
 1.29204E+00    1.75407E+02
 1.30000E+00    1.76596E+02
 1.30202E+00    1.76982E+02
 1.32938E+00    1.82657E+02
 1.35276E+00    1.86996E+02
 1.36783E+00    1.88645E+02
 1.39391E+00    1.92662E+02
 1.40000E+00    1.91714E+02
 1.43280E+00    1.93051E+02
 1.43885E+00    1.91864E+02
 1.45419E+00    1.88995E+02
 1.48510E+00    1.87999E+02
 1.50000E+00    1.87899E+02
 1.50018E+00    1.87899E+02
 1.50977E+00    1.87898E+02
 1.53163E+00    1.88017E+02
 1.54529E+00    1.86838E+02
 1.57885E+00    1.86398E+02
 1.59012E+00    1.84903E+02
 1.60000E+00    1.84439E+02
 1.62241E+00    1.83862E+02
 1.62372E+00    1.83543E+02
 1.70000E+00    1.75783E+02
 1.80000E+00    1.65733E+02
 1.90000E+00    1.54253E+02
 2.00000E+00    1.42670E+02
 2.25000E+00    1.06226E+02
 2.50000E+00    8.06923E+01
 2.75000E+00    5.60620E+01
 3.00000E+00    3.99323E+01
 3.50000E+00    1.85025E+01
 4.00000E+00    8.41146E+00
 4.50000E+00    3.91647E+00
 5.00000E+00    1.96074E+00
 5.50000E+00    1.10854E+00
 6.00000E+00    7.28912E-01
 6.50000E+00    5.49091E-01
 7.00000E+00    4.54991E-01
 7.50000E+00    3.98568E-01
 8.00000E+00    3.59658E-01
 8.50000E+00    3.29644E-01
 9.00000E+00    3.04759E-01
 9.50000E+00    2.83155E-01
 1.00000E+01    2.63728E-01
 1.05000E+01    2.46010E-01
 1.10000E+01    2.29685E-01
 1.15000E+01    2.14606E-01
 1.20000E+01    2.00731E-01
 1.25000E+01    1.88021E-01
 1.30000E+01    1.76419E-01
 1.35000E+01    1.65839E-01
 1.40000E+01    1.56169E-01
 1.45000E+01    1.47291E-01
 1.50000E+01    1.39084E-01
 1.55000E+01    1.31449E-01
 1.60000E+01    1.24311E-01
 1.65000E+01    1.17618E-01
 1.70000E+01    1.11340E-01
 1.75000E+01    1.05464E-01
 1.80000E+01    9.99821E-02
 1.85000E+01    9.48966E-02
 1.90000E+01    9.02067E-02
 1.95000E+01    8.58975E-02
 2.00000E+01    8.19438E-02
