# n + W 184 : (n,n'01)  
# jendl4.0   N.Iwamoto                         EVAL-Feb10
# uncertainties: n
# # energies =    98
#   E(MeV)       xs(mb) 
 1.11818E-01    0.00000E+00
 1.20000E-01    1.54539E+02
 1.30000E-01    2.12135E+02
 1.40000E-01    2.64926E+02
 1.50000E-01    3.14293E+02
 1.60000E-01    3.60628E+02
 1.70000E-01    4.03189E+02
 1.80000E-01    4.43842E+02
 1.90000E-01    4.82745E+02
 2.00000E-01    5.21014E+02
 2.25000E-01    6.12553E+02
 2.50000E-01    7.00210E+02
 2.75000E-01    7.79217E+02
 3.00000E-01    8.51793E+02
 3.66052E-01    1.03307E+03
 4.00000E-01    1.11199E+03
 5.00000E-01    1.28941E+03
 6.00000E-01    1.40933E+03
 7.00000E-01    1.49160E+03
 7.52413E-01    1.52175E+03
 8.00000E-01    1.53757E+03
 9.00000E-01    1.56568E+03
 9.08234E-01    1.56766E+03
 1.00000E+00    1.48327E+03
 1.00798E+00    1.48082E+03
 1.01149E+00    1.47185E+03
 1.10000E+00    1.38622E+03
 1.12759E+00    1.36914E+03
 1.13623E+00    1.34430E+03
 1.14006E+00    1.32751E+03
 1.20000E+00    1.24346E+03
 1.22799E+00    1.21531E+03
 1.25917E+00    1.17638E+03
 1.29064E+00    1.14613E+03
 1.29204E+00    1.14165E+03
 1.30000E+00    1.13016E+03
 1.30202E+00    1.12774E+03
 1.32938E+00    1.09874E+03
 1.35276E+00    1.07046E+03
 1.36783E+00    1.05326E+03
 1.39391E+00    1.02801E+03
 1.40000E+00    1.01624E+03
 1.43280E+00    9.81592E+02
 1.43885E+00    9.73213E+02
 1.45419E+00    9.50115E+02
 1.48510E+00    9.19012E+02
 1.50000E+00    9.05903E+02
 1.50018E+00    9.05748E+02
 1.50977E+00    8.97693E+02
 1.53163E+00    8.79981E+02
 1.54529E+00    8.67475E+02
 1.57885E+00    8.43042E+02
 1.59012E+00    8.31796E+02
 1.60000E+00    8.24230E+02
 1.62241E+00    8.08458E+02
 1.62372E+00    8.06335E+02
 1.70000E+00    7.49682E+02
 1.80000E+00    6.94024E+02
 1.90000E+00    6.44116E+02
 2.00000E+00    6.00610E+02
 2.25000E+00    5.08842E+02
 2.50000E+00    4.52047E+02
 2.75000E+00    4.04416E+02
 3.00000E+00    3.72109E+02
 3.50000E+00    3.31595E+02
 4.00000E+00    3.12318E+02
 4.50000E+00    3.04117E+02
 5.00000E+00    3.00418E+02
 5.50000E+00    2.97734E+02
 6.00000E+00    2.94666E+02
 6.50000E+00    2.90865E+02
 7.00000E+00    2.86546E+02
 7.50000E+00    2.81944E+02
 8.00000E+00    2.77367E+02
 8.50000E+00    2.73098E+02
 9.00000E+00    2.69270E+02
 9.50000E+00    2.65898E+02
 1.00000E+01    2.62794E+02
 1.05000E+01    2.59760E+02
 1.10000E+01    2.56610E+02
 1.15000E+01    2.53257E+02
 1.20000E+01    2.49699E+02
 1.25000E+01    2.46001E+02
 1.30000E+01    2.42247E+02
 1.35000E+01    2.38510E+02
 1.40000E+01    2.34826E+02
 1.45000E+01    2.31191E+02
 1.50000E+01    2.27571E+02
 1.55000E+01    2.23927E+02
 1.60000E+01    2.20250E+02
 1.65000E+01    2.16565E+02
 1.70000E+01    2.12936E+02
 1.75000E+01    2.09449E+02
 1.80000E+01    2.06197E+02
 1.85000E+01    2.03269E+02
 1.90000E+01    2.00737E+02
 1.95000E+01    1.98649E+02
 2.00000E+01    1.97022E+02
