# n + Dy158 :  n        
# jendl4.0   N.Iwamoto,S.Chiba                 EVAL-Nov09
# uncertainties: n
# # energies =    94
#   E(MeV)       xs(mb) 
 1.05000E-01    0.00000E+00
 1.10000E-01    1.48770E-03
 1.20000E-01    1.71074E-03
 1.30000E-01    1.87441E-03
 1.40000E-01    1.98533E-03
 1.50000E-01    2.06218E-03
 1.60000E-01    2.11086E-03
 1.70000E-01    2.14441E-03
 1.80000E-01    2.16740E-03
 1.90000E-01    2.18293E-03
 2.00000E-01    2.19524E-03
 2.25000E-01    1.29433E-02
 2.50000E-01    1.56059E-02
 2.75000E-01    1.70197E-02
 3.00000E-01    1.78487E-02
 3.19165E-01    5.07208E-02
 4.00000E-01    7.38010E-02
 5.00000E-01    2.13138E-01
 6.00000E-01    4.97129E-01
 6.41785E-01    8.57773E-01
 7.00000E-01    1.00852E+00
 8.00000E-01    1.85570E+00
 9.00000E-01    3.17745E+00
 9.52364E-01    4.62714E+00
 9.96856E-01    4.79261E+00
 1.00000E+00    4.76189E+00
 1.05056E+00    6.30338E+00
 1.05127E+00    6.31287E+00
 1.09251E+00    6.54129E+00
 1.10000E+00    6.45436E+00
 1.17118E+00    8.34696E+00
 1.20000E+00    8.56464E+00
 1.27710E+00    1.12207E+01
 1.28818E+00    1.12846E+01
 1.30000E+00    1.13853E+01
 1.32318E+00    1.30034E+01
 1.37070E+00    1.44860E+01
 1.38049E+00    1.44661E+01
 1.40000E+00    1.43719E+01
 1.40609E+00    1.43986E+01
 1.45096E+00    1.68234E+01
 1.48643E+00    1.71438E+01
 1.49584E+00    1.72281E+01
 1.50000E+00    1.72660E+01
 1.51071E+00    1.83187E+01
 1.52321E+00    1.89639E+01
 1.52815E+00    1.92948E+01
 1.52981E+00    1.93504E+01
 1.53783E+00    1.96352E+01
 1.55720E+00    2.01451E+01
 1.56896E+00    2.03766E+01
 1.60000E+00    2.07395E+01
 1.70000E+00    9.55691E+01
 1.80000E+00    2.59218E+02
 1.90000E+00    4.49754E+02
 2.00000E+00    6.47329E+02
 2.25000E+00    1.04927E+03
 2.50000E+00    1.50299E+03
 2.75000E+00    1.78681E+03
 3.00000E+00    2.04690E+03
 3.50000E+00    2.34203E+03
 4.00000E+00    2.48585E+03
 4.50000E+00    2.54335E+03
 5.00000E+00    2.55519E+03
 5.50000E+00    2.54587E+03
 6.00000E+00    2.52849E+03
 6.50000E+00    2.50868E+03
 7.00000E+00    2.48914E+03
 7.50000E+00    2.47070E+03
 8.00000E+00    2.45336E+03
 8.50000E+00    2.43698E+03
 9.00000E+00    2.42137E+03
 9.50000E+00    2.34516E+03
 1.00000E+01    1.96038E+03
 1.05000E+01    1.50645E+03
 1.10000E+01    1.13027E+03
 1.15000E+01    8.60889E+02
 1.20000E+01    6.85858E+02
 1.25000E+01    5.55175E+02
 1.30000E+01    4.62725E+02
 1.35000E+01    3.95883E+02
 1.40000E+01    3.46325E+02
 1.45000E+01    3.08849E+02
 1.50000E+01    2.79853E+02
 1.55000E+01    2.57408E+02
 1.60000E+01    2.38962E+02
 1.65000E+01    2.23759E+02
 1.70000E+01    2.10828E+02
 1.75000E+01    2.00608E+02
 1.80000E+01    1.91669E+02
 1.85000E+01    1.83525E+02
 1.90000E+01    1.75441E+02
 1.95000E+01    1.69388E+02
 2.00000E+01    1.63130E+02
