# n + Dy158 : (n,n'14)  
# jendl4.0   N.Iwamoto,S.Chiba                 EVAL-Nov09
# uncertainties: n
# # energies =    57
#   E(MeV)       xs(mb) 
 1.38049E+00    0.00000E+00
 1.40000E+00    4.64834E+01
 1.40609E+00    5.24238E+01
 1.45096E+00    8.19704E+01
 1.48643E+00    9.41908E+01
 1.49584E+00    9.73592E+01
 1.50000E+00    9.87279E+01
 1.51071E+00    1.02220E+02
 1.52321E+00    1.05572E+02
 1.52815E+00    1.06849E+02
 1.52981E+00    1.07264E+02
 1.53783E+00    1.09239E+02
 1.55720E+00    1.13716E+02
 1.56896E+00    1.16259E+02
 1.60000E+00    1.20320E+02
 1.70000E+00    1.26789E+02
 1.80000E+00    1.23304E+02
 1.90000E+00    1.15428E+02
 2.00000E+00    1.05577E+02
 2.25000E+00    8.28032E+01
 2.50000E+00    5.72823E+01
 2.75000E+00    4.09078E+01
 3.00000E+00    2.72445E+01
 3.50000E+00    1.25909E+01
 4.00000E+00    5.80146E+00
 4.50000E+00    2.71755E+00
 5.00000E+00    1.32435E+00
 5.50000E+00    6.95026E-01
 6.00000E+00    4.08750E-01
 6.50000E+00    2.76037E-01
 7.00000E+00    2.11773E-01
 7.50000E+00    1.78121E-01
 8.00000E+00    1.58333E-01
 8.50000E+00    1.44922E-01
 9.00000E+00    1.34636E-01
 9.50000E+00    1.26014E-01
 1.00000E+01    1.18431E-01
 1.05000E+01    1.11650E-01
 1.10000E+01    1.05363E-01
 1.15000E+01    9.96930E-02
 1.20000E+01    9.43963E-02
 1.25000E+01    8.95749E-02
 1.30000E+01    8.50673E-02
 1.35000E+01    8.09343E-02
 1.40000E+01    7.70662E-02
 1.45000E+01    7.34954E-02
 1.50000E+01    7.01504E-02
 1.55000E+01    6.70965E-02
 1.60000E+01    6.40157E-02
 1.65000E+01    6.13561E-02
 1.70000E+01    5.89763E-02
 1.75000E+01    5.66289E-02
 1.80000E+01    5.42045E-02
 1.85000E+01    5.18991E-02
 1.90000E+01    5.00135E-02
 1.95000E+01    4.82606E-02
 2.00000E+01    4.65718E-02
