# n + Dy158 : (n,n'05)  
# jendl4.0   N.Iwamoto,S.Chiba                 EVAL-Nov09
# uncertainties: n
# # energies =    70
#   E(MeV)       xs(mb) 
 9.96857E-01    0.00000E+00
 1.00000E+00    2.42889E+01
 1.05056E+00    7.73456E+01
 1.05127E+00    7.77664E+01
 1.09251E+00    9.79216E+01
 1.10000E+00    1.00720E+02
 1.17118E+00    1.18401E+02
 1.20000E+00    1.22910E+02
 1.27710E+00    1.29630E+02
 1.28818E+00    1.26900E+02
 1.30000E+00    1.26461E+02
 1.32318E+00    1.25962E+02
 1.37070E+00    1.25798E+02
 1.38049E+00    1.25289E+02
 1.40000E+00    1.21172E+02
 1.40609E+00    1.20492E+02
 1.45096E+00    1.16647E+02
 1.48643E+00    1.10983E+02
 1.49584E+00    1.10099E+02
 1.50000E+00    1.09687E+02
 1.51071E+00    1.08726E+02
 1.52321E+00    1.07691E+02
 1.52815E+00    1.07301E+02
 1.52981E+00    1.07166E+02
 1.53783E+00    1.06537E+02
 1.55720E+00    1.05086E+02
 1.56896E+00    1.04260E+02
 1.60000E+00    1.00570E+02
 1.70000E+00    9.19844E+01
 1.80000E+00    8.22999E+01
 1.90000E+00    7.26972E+01
 2.00000E+00    6.35460E+01
 2.25000E+00    4.55940E+01
 2.50000E+00    2.97311E+01
 2.75000E+00    2.00628E+01
 3.00000E+00    1.30936E+01
 3.50000E+00    5.76887E+00
 4.00000E+00    2.63448E+00
 4.50000E+00    1.27271E+00
 5.00000E+00    6.68716E-01
 5.50000E+00    3.95981E-01
 6.00000E+00    2.69784E-01
 6.50000E+00    2.08410E-01
 7.00000E+00    1.75721E-01
 7.50000E+00    1.55965E-01
 8.00000E+00    1.42290E-01
 8.50000E+00    1.31656E-01
 9.00000E+00    1.22736E-01
 9.50000E+00    1.14888E-01
 1.00000E+01    1.07833E-01
 1.05000E+01    1.01473E-01
 1.10000E+01    9.55754E-02
 1.15000E+01    9.02663E-02
 1.20000E+01    8.53121E-02
 1.25000E+01    8.08312E-02
 1.30000E+01    7.66404E-02
 1.35000E+01    7.28222E-02
 1.40000E+01    6.92473E-02
 1.45000E+01    6.59651E-02
 1.50000E+01    6.28902E-02
 1.55000E+01    6.00572E-02
 1.60000E+01    5.72515E-02
 1.65000E+01    5.49528E-02
 1.70000E+01    5.26319E-02
 1.75000E+01    5.04949E-02
 1.80000E+01    4.83135E-02
 1.85000E+01    4.63047E-02
 1.90000E+01    4.47164E-02
 1.95000E+01    4.29051E-02
 2.00000E+01    4.13758E-02
