# n + Dy158 : (n,n'09)  
# jendl4.0   N.Iwamoto,S.Chiba                 EVAL-Nov09
# uncertainties: n
# # energies =    64
#   E(MeV)       xs(mb) 
 1.17118E+00    0.00000E+00
 1.20000E+00    6.14042E+00
 1.27710E+00    1.98687E+01
 1.28818E+00    2.18505E+01
 1.30000E+00    2.36823E+01
 1.32318E+00    2.74219E+01
 1.37070E+00    3.50283E+01
 1.38049E+00    3.63144E+01
 1.40000E+00    3.90527E+01
 1.40609E+00    3.99215E+01
 1.45096E+00    4.46568E+01
 1.48643E+00    4.91377E+01
 1.49584E+00    5.01273E+01
 1.50000E+00    5.06038E+01
 1.51071E+00    5.18017E+01
 1.52321E+00    5.29359E+01
 1.52815E+00    5.32817E+01
 1.52981E+00    5.30803E+01
 1.53783E+00    5.33961E+01
 1.55720E+00    5.47862E+01
 1.56896E+00    5.57523E+01
 1.60000E+00    5.81287E+01
 1.70000E+00    6.44370E+01
 1.80000E+00    6.73022E+01
 1.90000E+00    6.79016E+01
 2.00000E+00    6.67138E+01
 2.25000E+00    5.99234E+01
 2.50000E+00    4.66505E+01
 2.75000E+00    3.66883E+01
 3.00000E+00    2.73244E+01
 3.50000E+00    1.48779E+01
 4.00000E+00    7.91791E+00
 4.50000E+00    4.25347E+00
 5.00000E+00    2.39305E+00
 5.50000E+00    1.46816E+00
 6.00000E+00    1.00929E+00
 6.50000E+00    7.75665E-01
 7.00000E+00    6.48762E-01
 7.50000E+00    5.72474E-01
 8.00000E+00    5.20737E-01
 8.50000E+00    4.81368E-01
 9.00000E+00    4.48848E-01
 9.50000E+00    4.20479E-01
 1.00000E+01    3.95063E-01
 1.05000E+01    3.72162E-01
 1.10000E+01    3.50897E-01
 1.15000E+01    3.31726E-01
 1.20000E+01    3.13814E-01
 1.25000E+01    2.97566E-01
 1.30000E+01    2.82365E-01
 1.35000E+01    2.68476E-01
 1.40000E+01    2.55468E-01
 1.45000E+01    2.43496E-01
 1.50000E+01    2.32277E-01
 1.55000E+01    2.22074E-01
 1.60000E+01    2.11782E-01
 1.65000E+01    2.02861E-01
 1.70000E+01    1.94888E-01
 1.75000E+01    1.87130E-01
 1.80000E+01    1.78993E-01
 1.85000E+01    1.71267E-01
 1.90000E+01    1.65058E-01
 1.95000E+01    1.59244E-01
 2.00000E+01    1.53562E-01
