# n + Dy158 : (n,n'01)  
# jendl4.0   N.Iwamoto,S.Chiba                 EVAL-Nov09
# uncertainties: n
# # energies =    95
#   E(MeV)       xs(mb) 
 9.95498E-02    0.00000E+00
 1.00000E-01    2.49069E+01
 1.10000E-01    9.58913E+01
 1.20000E-01    1.62435E+02
 1.30000E-01    2.25051E+02
 1.40000E-01    2.82972E+02
 1.50000E-01    3.36660E+02
 1.60000E-01    3.84583E+02
 1.70000E-01    4.29556E+02
 1.80000E-01    4.71187E+02
 1.90000E-01    5.10045E+02
 2.00000E-01    5.47192E+02
 2.25000E-01    6.30299E+02
 2.50000E-01    7.02261E+02
 2.75000E-01    7.68331E+02
 3.00000E-01    8.30462E+02
 3.19165E-01    8.71519E+02
 4.00000E-01    1.02296E+03
 5.00000E-01    1.16038E+03
 6.00000E-01    1.25944E+03
 6.41785E-01    1.29126E+03
 7.00000E-01    1.33018E+03
 8.00000E-01    1.37911E+03
 9.00000E-01    1.41052E+03
 9.52364E-01    1.42016E+03
 9.96856E-01    1.35866E+03
 1.00000E+00    1.34943E+03
 1.05056E+00    1.30854E+03
 1.05127E+00    1.30812E+03
 1.09251E+00    1.26076E+03
 1.10000E+00    1.23587E+03
 1.17118E+00    1.16053E+03
 1.20000E+00    1.13943E+03
 1.27710E+00    1.09136E+03
 1.28818E+00    1.07944E+03
 1.30000E+00    1.07079E+03
 1.32318E+00    1.05469E+03
 1.37070E+00    1.02508E+03
 1.38049E+00    1.00820E+03
 1.40000E+00    9.80347E+02
 1.40609E+00    9.74400E+02
 1.45096E+00    9.31723E+02
 1.48643E+00    8.96047E+02
 1.49584E+00    8.88518E+02
 1.50000E+00    8.85329E+02
 1.51071E+00    8.76888E+02
 1.52321E+00    8.67166E+02
 1.52815E+00    8.63317E+02
 1.52981E+00    8.61290E+02
 1.53783E+00    8.54330E+02
 1.55720E+00    8.39280E+02
 1.56896E+00    8.30734E+02
 1.60000E+00    8.06829E+02
 1.70000E+00    7.34204E+02
 1.80000E+00    6.66565E+02
 1.90000E+00    6.09151E+02
 2.00000E+00    5.60985E+02
 2.25000E+00    4.71811E+02
 2.50000E+00    4.04132E+02
 2.75000E+00    3.64404E+02
 3.00000E+00    3.34618E+02
 3.50000E+00    3.01845E+02
 4.00000E+00    2.84068E+02
 4.50000E+00    2.72938E+02
 5.00000E+00    2.65687E+02
 5.50000E+00    2.61335E+02
 6.00000E+00    2.58955E+02
 6.50000E+00    2.57505E+02
 7.00000E+00    2.56104E+02
 7.50000E+00    2.54233E+02
 8.00000E+00    2.51680E+02
 8.50000E+00    2.48449E+02
 9.00000E+00    2.44671E+02
 9.50000E+00    2.40546E+02
 1.00000E+01    2.36282E+02
 1.05000E+01    2.32144E+02
 1.10000E+01    2.28007E+02
 1.15000E+01    2.24372E+02
 1.20000E+01    2.20737E+02
 1.25000E+01    2.17722E+02
 1.30000E+01    2.14707E+02
 1.35000E+01    2.12212E+02
 1.40000E+01    2.09718E+02
 1.45000E+01    2.07574E+02
 1.50000E+01    2.05431E+02
 1.55000E+01    2.03499E+02
 1.60000E+01    2.01568E+02
 1.65000E+01    1.99774E+02
 1.70000E+01    1.97981E+02
 1.75000E+01    1.96310E+02
 1.80000E+01    1.94639E+02
 1.85000E+01    1.93113E+02
 1.90000E+01    1.91587E+02
 1.95000E+01    1.90233E+02
 2.00000E+01    1.88880E+02
