# n + Sm147 : (n,xa)    
# jendl.ad   N.Iwamoto                         EVAL-Apr14
# 
# # energies =   109
#   E(MeV)        xs(mb) 
 1.05000E-01    1.49336E-02
 1.10000E-01    1.47679E-02
 1.20000E-01    1.44876E-02
 1.22052E-01    1.44333E-02
 1.30000E-01    1.26523E-02
 1.40000E-01    1.20080E-02
 1.50000E-01    1.15363E-02
 1.60000E-01    1.11770E-02
 1.70000E-01    1.09567E-02
 1.80000E-01    1.07682E-02
 1.90000E-01    1.06059E-02
 1.98755E-01    1.04862E-02
 2.00000E-01    9.88149E-03
 2.25000E-01    9.14951E-03
 2.50000E-01    8.81399E-03
 2.75000E-01    8.76531E-03
 3.00000E-01    8.80106E-03
 4.00000E-01    9.17658E-03
 5.00000E-01    1.05134E-02
 6.00000E-01    1.20923E-02
 7.00000E-01    1.43958E-02
 7.21520E-01    1.49692E-02
 7.24943E-01    1.47014E-02
 8.00000E-01    1.60309E-02
 8.04687E-01    1.61489E-02
 8.14856E-01    1.62564E-02
 8.90069E-01    1.72312E-02
 9.00000E-01    1.74336E-02
 9.06179E-01    1.75595E-02
 9.29136E-01    1.75267E-02
 9.37996E-01    1.75886E-02
 9.84715E-01    1.79147E-02
 1.00000E+00    1.79706E-02
 1.02700E+00    1.84671E-02
 1.03778E+00    1.84901E-02
 1.05066E+00    1.85930E-02
 1.06154E+00    1.86799E-02
 1.07120E+00    1.85858E-02
 1.07639E+00    1.84305E-02
 1.08439E+00    1.83034E-02
 1.10000E+00    1.80553E-02
 1.11446E+00    1.80741E-02
 1.16998E+00    1.80030E-02
 1.17703E+00    1.80200E-02
 1.18105E+00    1.80298E-02
 1.18820E+00    1.80470E-02
 1.20000E+00    1.80628E-02
 1.22968E+00    1.83774E-02
 1.22969E+00    1.83776E-02
 1.26664E+00    1.89524E-02
 1.30000E+00    1.91581E-02
 1.32672E+00    1.95860E-02
 1.32690E+00    1.95743E-02
 1.32712E+00    1.95599E-02
 1.35892E+00    1.96567E-02
 1.40000E+00    2.00916E-02
 1.43982E+00    2.07923E-02
 1.44787E+00    2.09340E-02
 1.45906E+00    2.10349E-02
 1.46319E+00    2.10721E-02
 1.46841E+00    2.11244E-02
 1.47405E+00    2.11868E-02
 1.48151E+00    2.12692E-02
 1.48198E+00    2.12642E-02
 1.48199E+00    2.12643E-02
 1.50000E+00    2.14766E-02
 1.60000E+00    2.31514E-02
 1.70000E+00    2.47058E-02
 1.80000E+00    2.65450E-02
 1.90000E+00    2.85659E-02
 2.00000E+00    3.07830E-02
 2.25000E+00    3.86973E-02
 2.50000E+00    4.59086E-02
 2.75000E+00    5.68178E-02
 3.00000E+00    6.82883E-02
 3.50000E+00    9.56996E-02
 4.00000E+00    1.23707E-01
 4.50000E+00    1.54431E-01
 5.00000E+00    1.89709E-01
 5.50000E+00    2.34786E-01
 6.00000E+00    3.00921E-01
 6.50000E+00    3.98703E-01
 7.00000E+00    5.25198E-01
 7.50000E+00    7.04451E-01
 8.00000E+00    9.10539E-01
 8.50000E+00    1.13035E+00
 9.00000E+00    1.37249E+00
 9.50000E+00    1.66588E+00
 1.00000E+01    2.36795E+00
 1.05000E+01    3.89926E+00
 1.10000E+01    6.11922E+00
 1.15000E+01    8.73665E+00
 1.20000E+01    1.15986E+01
 1.25000E+01    1.46222E+01
 1.30000E+01    1.77496E+01
 1.35000E+01    2.09332E+01
 1.40000E+01    2.41235E+01
 1.45000E+01    2.72691E+01
 1.50000E+01    3.03925E+01
 1.55000E+01    3.35448E+01
 1.60000E+01    3.66761E+01
 1.65000E+01    3.94852E+01
 1.70000E+01    4.24264E+01
 1.75000E+01    4.47394E+01
 1.80000E+01    4.70110E+01
 1.85000E+01    4.87075E+01
 1.90000E+01    4.99860E+01
 1.95000E+01    5.01433E+01
 2.00000E+01    4.89975E+01
