# n + Ba138 : (n,xn)    
# jendl.ad   N.Iwamoto                         EVAL-Apr14
# 
# # energies =   103
#   E(MeV)        xs(mb) 
 1.05000E-01    0.00000E+00
 1.10000E-01    1.97153E-05
 1.20000E-01    2.33512E-05
 1.30000E-01    2.70955E-05
 1.40000E-01    2.94490E-05
 1.50000E-01    3.06846E-05
 1.60000E-01    3.13749E-05
 1.70000E-01    3.21698E-05
 1.80000E-01    3.28364E-05
 1.90000E-01    3.34566E-05
 2.00000E-01    3.40572E-05
 2.25000E-01    1.68610E-04
 2.50000E-01    2.12353E-04
 2.75000E-01    2.33777E-04
 3.00000E-01    2.51199E-04
 4.00000E-01    8.81795E-04
 5.00000E-01    2.39339E-03
 6.00000E-01    5.11255E-03
 7.00000E-01    9.95963E-03
 8.00000E-01    1.78100E-02
 9.00000E-01    2.92475E-02
 1.00000E+00    4.50343E-02
 1.10000E+00    6.83034E-02
 1.20000E+00    1.00318E-01
 1.30000E+00    1.43452E-01
 1.40000E+00    2.00549E-01
 1.44632E+00    2.40274E-01
 1.50000E+00    2.71651E+02
 1.60000E+00    4.21408E+02
 1.70000E+00    5.25658E+02
 1.80000E+00    6.19270E+02
 1.90000E+00    7.10304E+02
 1.91250E+00    7.21443E+02
 2.00000E+00    8.83436E+02
 2.10583E+00    1.00260E+03
 2.20596E+00    1.10304E+03
 2.21921E+00    1.13788E+03
 2.23412E+00    1.16149E+03
 2.25000E+00    1.21351E+03
 2.32447E+00    1.33811E+03
 2.35712E+00    1.40006E+03
 2.43308E+00    1.51152E+03
 2.46351E+00    1.55421E+03
 2.50000E+00    1.61301E+03
 2.60170E+00    1.72278E+03
 2.60206E+00    1.72389E+03
 2.65879E+00    1.79306E+03
 2.75000E+00    1.89045E+03
 2.79972E+00    1.93125E+03
 2.81470E+00    1.94467E+03
 2.87241E+00    1.99492E+03
 2.90182E+00    2.01799E+03
 2.92121E+00    2.03242E+03
 2.93783E+00    2.04503E+03
 2.95289E+00    2.05753E+03
 3.00000E+00    2.10353E+03
 3.01303E+00    2.11137E+03
 3.07241E+00    2.14713E+03
 3.17772E+00    2.19887E+03
 3.18656E+00    2.20309E+03
 3.20712E+00    2.21290E+03
 3.26627E+00    2.23415E+03
 3.28135E+00    2.23989E+03
 3.33361E+00    2.25697E+03
 3.36339E+00    2.26498E+03
 3.37712E+00    2.26918E+03
 3.38417E+00    2.27171E+03
 3.39107E+00    2.27381E+03
 3.40123E+00    2.27720E+03
 3.50000E+00    2.29979E+03
 4.00000E+00    2.32950E+03
 4.50000E+00    2.28931E+03
 5.00000E+00    2.23493E+03
 5.50000E+00    2.18998E+03
 6.00000E+00    2.16216E+03
 6.50000E+00    2.14996E+03
 7.00000E+00    2.14648E+03
 7.50000E+00    2.14634E+03
 8.00000E+00    2.14494E+03
 8.50000E+00    2.14090E+03
 9.00000E+00    2.15218E+03
 9.50000E+00    2.23193E+03
 1.00000E+01    2.51935E+03
 1.05000E+01    2.83506E+03
 1.10000E+01    3.09346E+03
 1.15000E+01    3.27116E+03
 1.20000E+01    3.40837E+03
 1.25000E+01    3.52704E+03
 1.30000E+01    3.62795E+03
 1.35000E+01    3.70872E+03
 1.40000E+01    3.77333E+03
 1.45000E+01    3.82583E+03
 1.50000E+01    3.86816E+03
 1.55000E+01    3.90547E+03
 1.60000E+01    3.92212E+03
 1.65000E+01    3.94267E+03
 1.70000E+01    3.96251E+03
 1.75000E+01    3.98999E+03
 1.80000E+01    4.04100E+03
 1.85000E+01    4.09397E+03
 1.90000E+01    4.17410E+03
 1.95000E+01    4.26666E+03
 2.00000E+01    4.35820E+03
