# n + Ag109 : (n,n')m   
# jendl.ad   N.Iwamoto                         EVAL-Apr14
# uncertainties: n
# # energies =    90
#   E(MeV)       xs(mb) 
 8.88494E-02    0.00000E+00
 9.00000E-02    1.88872E-01
 1.00000E-01    2.24361E+00
 1.10000E-01    4.66800E+00
 1.20000E-01    7.16452E+00
 1.30000E-01    9.72415E+00
 1.33969E-01    1.07885E+01
 1.40000E-01    1.26458E+01
 1.50000E-01    1.57716E+01
 1.60000E-01    1.90478E+01
 1.70000E-01    2.24417E+01
 1.80000E-01    2.59805E+01
 1.90000E-01    2.96776E+01
 2.00000E-01    3.34998E+01
 2.25000E-01    4.37755E+01
 2.50000E-01    5.48178E+01
 2.75000E-01    6.67870E+01
 3.00000E-01    7.94370E+01
 3.14264E-01    8.70152E+01
 4.00000E-01    1.18205E+02
 4.19056E-01    1.26145E+02
 4.23890E-01    1.25773E+02
 5.00000E-01    1.34162E+02
 6.00000E-01    1.53730E+02
 7.00000E-01    1.76954E+02
 7.08411E-01    1.78955E+02
 7.12539E-01    1.79001E+02
 7.13548E-01    1.79057E+02
 7.31059E-01    1.79067E+02
 7.42100E-01    1.89986E+02
 7.80664E-01    3.20540E+02
 7.96308E-01    3.32219E+02
 8.00000E-01    3.34333E+02
 8.70751E-01    3.68768E+02
 8.77523E-01    3.70198E+02
 8.78058E-01    3.71325E+02
 8.98243E-01    3.80546E+02
 9.00000E-01    3.81494E+02
 9.19438E-01    3.89652E+02
 9.20548E-01    3.89944E+02
 9.39421E-01    3.95346E+02
 1.00000E+00    4.08662E+02
 1.10000E+00    4.33519E+02
 1.20000E+00    4.64316E+02
 1.30000E+00    4.96818E+02
 1.40000E+00    5.30951E+02
 1.50000E+00    5.66934E+02
 1.60000E+00    5.94881E+02
 1.70000E+00    6.22190E+02
 1.80000E+00    6.49540E+02
 1.90000E+00    6.77298E+02
 2.00000E+00    7.08579E+02
 2.25000E+00    7.42560E+02
 2.50000E+00    7.92583E+02
 2.75000E+00    8.13827E+02
 3.00000E+00    8.50488E+02
 3.50000E+00    8.98366E+02
 4.00000E+00    9.46416E+02
 4.50000E+00    9.95311E+02
 5.00000E+00    1.04116E+03
 5.50000E+00    1.07914E+03
 6.00000E+00    1.10665E+03
 6.50000E+00    1.12434E+03
 7.00000E+00    1.13535E+03
 7.50000E+00    1.14485E+03
 8.00000E+00    1.14634E+03
 8.50000E+00    1.15871E+03
 9.00000E+00    1.17300E+03
 9.50000E+00    1.18610E+03
 1.00000E+01    1.09756E+03
 1.05000E+01    9.18944E+02
 1.10000E+01    7.56253E+02
 1.15000E+01    6.25531E+02
 1.20000E+01    5.26811E+02
 1.25000E+01    4.54079E+02
 1.30000E+01    4.01412E+02
 1.35000E+01    3.62502E+02
 1.40000E+01    3.33365E+02
 1.45000E+01    3.10348E+02
 1.50000E+01    2.92132E+02
 1.55000E+01    2.76663E+02
 1.60000E+01    2.63768E+02
 1.65000E+01    2.53022E+02
 1.70000E+01    2.44051E+02
 1.75000E+01    2.35147E+02
 1.80000E+01    2.27508E+02
 1.85000E+01    2.22589E+02
 1.90000E+01    2.16997E+02
 1.95000E+01    2.11723E+02
 2.00000E+01    2.06504E+02
