# n + Sm152 : (n,d)     
# jendl4.0   N.Iwamoto                         EVAL-Nov09
# uncertainties: n
# # energies =    65
#   E(MeV)       xs(mb) 
 6.48068E+00    0.00000E+00
 6.56637E+00    8.48920E-24
 6.59825E+00    2.82190E-19
 6.65692E+00    1.05960E-18
 6.67926E+00    1.44260E-18
 6.73807E+00    2.71330E-18
 6.74357E+00    2.84420E-18
 6.80752E+00    4.50350E-18
 6.81247E+00    4.63300E-18
 6.82676E+00    5.00770E-18
 6.90996E+00    7.20810E-18
 6.91067E+00    7.22690E-18
 6.97061E+00    8.81310E-18
 6.98148E+00    9.10080E-18
 6.99194E+00    9.37770E-18
 7.00850E+00    9.81600E-18
 7.01627E+00    1.09700E-17
 7.02464E+00    1.28770E-17
 7.03635E+00    1.65320E-17
 7.06192E+00    2.78160E-17
 7.08064E+00    3.78440E-17
 7.08175E+00    3.84650E-17
 7.12503E+00    6.47360E-17
 7.14265E+00    7.58840E-17
 7.18634E+00    1.04390E-16
 7.20466E+00    1.16430E-16
 7.23219E+00    1.34580E-16
 7.24127E+00    1.40580E-16
 7.25942E+00    1.52580E-16
 7.26687E+00    1.57510E-16
 7.29552E+00    1.76490E-16
 7.31368E+00    1.88520E-16
 7.32723E+00    1.97500E-16
 7.33864E+00    2.05070E-16
 7.33934E+00    2.05530E-16
 7.34025E+00    2.06130E-16
 7.35243E+00    2.14210E-16
 7.35704E+00    2.17260E-16
 7.36120E+00    2.20020E-16
 7.50000E+00    3.12040E-16
 8.00000E+00    7.25390E-16
 8.50000E+00    8.43180E-13
 9.00000E+00    4.98920E-10
 9.50000E+00    4.95430E-08
 1.00000E+01    1.76630E-06
 1.05000E+01    2.41044E-05
 1.10000E+01    1.93259E-04
 1.15000E+01    1.05441E-03
 1.20000E+01    4.30691E-03
 1.25000E+01    1.40130E-02
 1.30000E+01    3.78653E-02
 1.35000E+01    8.74926E-02
 1.40000E+01    1.76809E-01
 1.45000E+01    3.18680E-01
 1.50000E+01    5.21656E-01
 1.55000E+01    7.70498E-01
 1.60000E+01    1.08919E+00
 1.65000E+01    1.48108E+00
 1.70000E+01    1.86877E+00
 1.75000E+01    2.39808E+00
 1.80000E+01    2.83917E+00
 1.85000E+01    3.38974E+00
 1.90000E+01    3.91199E+00
 1.95000E+01    4.46902E+00
 2.00000E+01    5.05856E+00
