# n + Sm152 : (n,n'07)  
# jendl4.0   N.Iwamoto                         EVAL-Nov09
# uncertainties: n
# # energies =    81
#   E(MeV)       xs(mb) 
 1.02976E+00    0.00000E+00
 1.04802E+00    6.68498E+00
 1.09004E+00    1.39079E+01
 1.09309E+00    1.44595E+01
 1.10000E+00    1.55815E+01
 1.13282E+00    2.13520E+01
 1.20000E+00    3.36401E+01
 1.22959E+00    3.93622E+01
 1.23414E+00    4.02599E+01
 1.24204E+00    4.13566E+01
 1.29850E+00    4.98731E+01
 1.30000E+00    5.00263E+01
 1.30134E+00    5.02095E+01
 1.31920E+00    5.20762E+01
 1.38085E+00    6.10939E+01
 1.40000E+00    6.31027E+01
 1.50000E+00    7.57172E+01
 1.51561E+00    7.76521E+01
 1.52082E+00    7.82938E+01
 1.53995E+00    8.05597E+01
 1.56994E+00    8.36694E+01
 1.58992E+00    8.52737E+01
 1.60000E+00    8.53924E+01
 1.61991E+00    8.68522E+01
 1.62349E+00    8.71363E+01
 1.66084E+00    9.02598E+01
 1.66981E+00    9.04324E+01
 1.67745E+00    9.06554E+01
 1.69173E+00    9.11094E+01
 1.69326E+00    9.11400E+01
 1.70000E+00    9.09079E+01
 1.73967E+00    9.16340E+01
 1.74173E+00    9.16827E+01
 1.74753E+00    9.13892E+01
 1.76870E+00    9.14987E+01
 1.77591E+00    9.09378E+01
 1.78085E+00    9.08351E+01
 1.78803E+00    9.01599E+01
 1.80000E+00    8.98086E+01
 1.81596E+00    8.96082E+01
 1.83328E+00    8.95187E+01
 1.90000E+00    8.88638E+01
 2.00000E+00    8.76781E+01
 2.25000E+00    7.05618E+01
 2.50000E+00    5.63115E+01
 2.75000E+00    4.02230E+01
 3.00000E+00    2.94011E+01
 3.50000E+00    1.42930E+01
 4.00000E+00    6.70803E+00
 4.50000E+00    3.11633E+00
 5.00000E+00    1.48506E+00
 5.50000E+00    7.61900E-01
 6.00000E+00    4.43936E-01
 6.50000E+00    3.01268E-01
 7.00000E+00    2.33442E-01
 7.50000E+00    1.97390E-01
 8.00000E+00    1.74743E-01
 8.50000E+00    1.58003E-01
 9.00000E+00    1.44292E-01
 9.50000E+00    1.32553E-01
 1.00000E+01    1.22333E-01
 1.05000E+01    1.13477E-01
 1.10000E+01    1.05700E-01
 1.15000E+01    9.88174E-02
 1.20000E+01    9.27041E-02
 1.25000E+01    8.72351E-02
 1.30000E+01    8.22773E-02
 1.35000E+01    7.77439E-02
 1.40000E+01    7.35562E-02
 1.45000E+01    6.96738E-02
 1.50000E+01    6.60706E-02
 1.55000E+01    6.27368E-02
 1.60000E+01    5.95785E-02
 1.65000E+01    5.66070E-02
 1.70000E+01    5.39625E-02
 1.75000E+01    5.14151E-02
 1.80000E+01    4.90258E-02
 1.85000E+01    4.67454E-02
 1.90000E+01    4.46557E-02
 1.95000E+01    4.29866E-02
 2.00000E+01    4.09022E-02
