# n + Bk247 : (n,xn)    
# jendl4.0   O.Iwamoto, T.Nakagawa, et al.     EVAL-FEB10
# 
# # energies =    74
#   E(MeV)        xs(mb) 
 3.00221E-02    0.00000E+00
 4.09666E-02    2.28607E+02
 5.00000E-02    4.34215E+02
 7.00000E-02    7.01654E+02
 7.18923E-02    7.21635E+02
 8.31380E-02    8.60225E+02
 1.00000E-01    1.05757E+03
 1.10900E-01    1.14428E+03
 1.20000E-01    1.21669E+03
 1.26012E-01    1.25905E+03
 1.37559E-01    1.33484E+03
 1.40000E-01    1.34996E+03
 1.70000E-01    1.51927E+03
 1.96800E-01    1.65552E+03
 2.00000E-01    1.67137E+03
 2.50000E-01    1.80166E+03
 2.66082E-01    1.83985E+03
 3.00000E-01    1.92073E+03
 4.00000E-01    2.10743E+03
 5.00000E-01    2.44035E+03
 6.00000E-01    2.68757E+03
 7.00000E-01    2.91942E+03
 8.00000E-01    3.05282E+03
 9.00000E-01    3.13614E+03
 1.00000E+00    3.17541E+03
 1.10000E+00    3.15406E+03
 1.20000E+00    3.10837E+03
 1.30000E+00    3.05829E+03
 1.40000E+00    3.02309E+03
 1.50000E+00    2.98896E+03
 1.60000E+00    2.96329E+03
 1.70000E+00    2.92965E+03
 1.80000E+00    2.89776E+03
 1.90000E+00    2.85617E+03
 2.00000E+00    2.81408E+03
 2.10000E+00    2.76421E+03
 2.30000E+00    2.66161E+03
 2.50000E+00    2.55288E+03
 2.70000E+00    2.44643E+03
 3.00000E+00    2.29785E+03
 3.50000E+00    2.12657E+03
 4.00000E+00    1.99154E+03
 4.50000E+00    1.91080E+03
 5.00000E+00    1.84887E+03
 5.50000E+00    1.81346E+03
 6.00000E+00    1.77795E+03
 6.50000E+00    1.61044E+03
 7.00000E+00    1.39558E+03
 7.50000E+00    1.41250E+03
 8.00000E+00    1.54291E+03
 8.50000E+00    1.64892E+03
 9.00000E+00    1.70337E+03
 9.50000E+00    1.69258E+03
 1.00000E+01    1.63205E+03
 1.05000E+01    1.57276E+03
 1.10000E+01    1.49791E+03
 1.15000E+01    1.41741E+03
 1.20000E+01    1.34960E+03
 1.25000E+01    1.28207E+03
 1.30000E+01    1.22025E+03
 1.35000E+01    1.16959E+03
 1.40000E+01    1.12637E+03
 1.45000E+01    1.08006E+03
 1.50000E+01    1.04047E+03
 1.55000E+01    9.96921E+02
 1.60000E+01    9.47301E+02
 1.65000E+01    9.16065E+02
 1.70000E+01    8.73595E+02
 1.75000E+01    8.36318E+02
 1.80000E+01    8.02584E+02
 1.85000E+01    7.73499E+02
 1.90000E+01    7.47768E+02
 1.95000E+01    7.25676E+02
 2.00000E+01    7.02327E+02
