# n + Sr 88 : (n,xp)    
# jendl4.0   K.Shibata, A.Ichihara, S.Kunieda  EVAL-AUG09
# 
# # energies =    56
#   E(MeV)        xs(mb) 
 1.85716E+00    0.00000E+00
 2.00000E+00    0.00000E+00
 2.50000E+00    0.00000E+00
 2.76551E+00    0.00000E+00
 3.00000E+00    0.00000E+00
 3.18817E+00    0.00000E+00
 3.25544E+00    0.00000E+00
 3.50000E+00    0.00000E+00
 3.52657E+00    0.00000E+00
 3.56336E+00    0.00000E+00
 3.62591E+00    0.00000E+00
 3.67682E+00    0.00000E+00
 3.99799E+00    0.00000E+00
 4.00000E+00    0.00000E+00
 4.03882E+00    0.00000E+00
 4.06576E+00    0.00000E+00
 4.08191E+00    0.00000E+00
 4.08542E+00    0.00000E+00
 4.21827E+00    0.00000E+00
 4.21886E+00    0.00000E+00
 4.27257E+00    0.00000E+00
 4.27575E+00    0.00000E+00
 4.31769E+00    0.00000E+00
 4.34900E+00    0.00000E+00
 4.40497E+00    0.00000E+00
 4.41836E+00    0.00000E+00
 4.46460E+00    0.00000E+00
 4.49172E+00    0.00000E+00
 4.50000E+00    0.00000E+00
 4.50310E+00    0.00000E+00
 4.53646E+00    0.00000E+00
 4.56582E+00    0.00000E+00
 4.56633E+00    0.00000E+00
 4.57645E+00    0.00000E+00
 5.00000E+00    0.00000E+00
 5.50000E+00    0.00000E+00
 6.00000E+00    0.00000E+00
 6.50000E+00    0.00000E+00
 7.00000E+00    5.91900E-03
 7.50000E+00    2.95300E-02
 8.00000E+00    7.70000E-02
 8.50000E+00    1.46600E-01
 9.00000E+00    4.62000E-01
 9.50000E+00    7.61200E-01
 1.00000E+01    1.14800E+00
 1.10000E+01    2.47000E+00
 1.20000E+01    4.81700E+00
 1.30000E+01    8.77924E+00
 1.40000E+01    1.47310E+01
 1.45000E+01    1.77711E+01
 1.50000E+01    2.29578E+01
 1.60000E+01    3.36350E+01
 1.70000E+01    4.62730E+01
 1.80000E+01    6.06500E+01
 1.90000E+01    7.67800E+01
 2.00000E+01    9.46000E+01
