# n + Sr 88 : (n,xa)    
# jendl4.0   K.Shibata, A.Ichihara, S.Kunieda  EVAL-AUG09
# 
# # energies =    56
#   E(MeV)        xs(mb) 
 1.85716E+00    0.00000E+00
 2.00000E+00    0.00000E+00
 2.50000E+00    0.00000E+00
 2.76551E+00    0.00000E+00
 3.00000E+00    0.00000E+00
 3.18817E+00    0.00000E+00
 3.25544E+00    0.00000E+00
 3.50000E+00    0.00000E+00
 3.52657E+00    0.00000E+00
 3.56336E+00    0.00000E+00
 3.62591E+00    0.00000E+00
 3.67682E+00    0.00000E+00
 3.99799E+00    0.00000E+00
 4.00000E+00    0.00000E+00
 4.03882E+00    0.00000E+00
 4.06576E+00    0.00000E+00
 4.08191E+00    0.00000E+00
 4.08542E+00    0.00000E+00
 4.21827E+00    0.00000E+00
 4.21886E+00    0.00000E+00
 4.27257E+00    0.00000E+00
 4.27575E+00    0.00000E+00
 4.31769E+00    0.00000E+00
 4.34900E+00    0.00000E+00
 4.40497E+00    0.00000E+00
 4.41836E+00    0.00000E+00
 4.46460E+00    0.00000E+00
 4.49172E+00    0.00000E+00
 4.50000E+00    0.00000E+00
 4.50310E+00    0.00000E+00
 4.53646E+00    0.00000E+00
 4.56582E+00    0.00000E+00
 4.56633E+00    0.00000E+00
 4.57645E+00    0.00000E+00
 5.00000E+00    0.00000E+00
 5.50000E+00    0.00000E+00
 6.00000E+00    0.00000E+00
 6.50000E+00    0.00000E+00
 7.00000E+00    6.69300E-05
 7.50000E+00    3.60400E-04
 8.00000E+00    1.73000E-03
 8.50000E+00    4.05600E-03
 9.00000E+00    8.05900E-03
 9.50000E+00    1.46700E-02
 1.00000E+01    1.55300E-01
 1.10000E+01    1.85800E-01
 1.20000E+01    4.66500E-01
 1.30000E+01    1.00600E+00
 1.40000E+01    2.04800E+00
 1.45000E+01    2.94312E+00
 1.50000E+01    3.86966E+00
 1.60000E+01    6.68779E+00
 1.70000E+01    1.04963E+01
 1.80000E+01    1.51177E+01
 1.90000E+01    2.02890E+01
 2.00000E+01    2.57600E+01
