# n + In113 : (n,xd)    
# jeff3.3    S.Kunieda, A.Ichihara, K.Shibata+ EVAL-FEB22
# 
# # energies =    61
#   E(MeV)        xs(mb) 
 3.95190E-01    0.00000E+00
 4.00000E-01    0.00000E+00
 4.50000E-01    0.00000E+00
 5.00000E-01    0.00000E+00
 5.50000E-01    0.00000E+00
 6.00000E-01    0.00000E+00
 6.50000E-01    0.00000E+00
 6.52538E-01    0.00000E+00
 7.00000E-01    0.00000E+00
 7.50000E-01    0.00000E+00
 8.00000E-01    0.00000E+00
 8.50000E-01    0.00000E+00
 9.00000E-01    0.00000E+00
 9.50000E-01    0.00000E+00
 1.00000E+00    0.00000E+00
 1.03340E+00    0.00000E+00
 1.03891E+00    0.00000E+00
 1.07367E+00    0.00000E+00
 1.11624E+00    0.00000E+00
 1.14157E+00    0.00000E+00
 1.18358E+00    0.00000E+00
 1.20000E+00    0.00000E+00
 1.20171E+00    0.00000E+00
 1.21180E+00    0.00000E+00
 1.40000E+00    0.00000E+00
 1.60000E+00    0.00000E+00
 1.80000E+00    0.00000E+00
 2.00000E+00    0.00000E+00
 2.20000E+00    0.00000E+00
 2.40000E+00    0.00000E+00
 2.60000E+00    0.00000E+00
 2.80000E+00    0.00000E+00
 3.00000E+00    0.00000E+00
 3.25000E+00    0.00000E+00
 3.50000E+00    0.00000E+00
 3.75000E+00    0.00000E+00
 4.00000E+00    0.00000E+00
 4.25000E+00    1.57100E-26
 4.50000E+00    6.08000E-22
 4.75000E+00    1.58800E-18
 5.00000E+00    8.16500E-16
 5.50000E+00    5.71200E-12
 6.00000E+00    2.52900E-09
 6.50000E+00    6.45900E-08
 7.00000E+00    5.81400E-07
 7.50000E+00    3.53900E-06
 8.00000E+00    5.94900E-05
 8.50000E+00    2.66500E-04
 9.00000E+00    1.11700E-03
 9.50000E+00    3.49700E-03
 1.00000E+01    1.00300E-02
 1.10000E+01    6.99300E-02
 1.20000E+01    3.61500E-01
 1.30000E+01    1.24500E+00
 1.40000E+01    2.97000E+00
 1.50000E+01    5.48800E+00
 1.60000E+01    8.55300E+00
 1.70000E+01    1.13101E+01
 1.80000E+01    1.47833E+01
 1.90000E+01    1.83211E+01
 2.00000E+01    2.18300E+01
