# n + In113 : (n,a)     
# jeff3.3    S.Kunieda, A.Ichihara, K.Shibata+ EVAL-FEB22
# uncertainties: n
# # energies =    56
#   E(MeV)       xs(mb) 
 1.00000E-01    0.00000E+00
 2.00000E-01    1.17000E-08
 2.50000E-01    1.51600E-08
 3.00000E-01    1.85600E-08
 3.50000E-01    2.54100E-08
 4.00000E-01    3.19800E-08
 4.50000E-01    4.39600E-08
 5.00000E-01    5.55400E-08
 5.50000E-01    7.78800E-08
 6.00000E-01    9.89000E-08
 6.50000E-01    1.39200E-07
 7.00000E-01    1.70100E-07
 7.50000E-01    2.35200E-07
 8.00000E-01    2.93700E-07
 8.50000E-01    4.10900E-07
 9.00000E-01    5.13900E-07
 9.50000E-01    7.20100E-07
 1.00000E+00    1.00900E-06
 1.20000E+00    2.50600E-06
 1.40000E+00    4.94900E-06
 1.60000E+00    9.51600E-06
 1.80000E+00    1.84100E-05
 2.00000E+00    3.35900E-05
 2.20000E+00    5.59000E-05
 2.40000E+00    8.94100E-05
 2.60000E+00    1.39000E-04
 2.80000E+00    2.15800E-04
 3.00000E+00    3.29400E-04
 3.25000E+00    5.71300E-04
 3.50000E+00    8.72000E-04
 3.75000E+00    1.41800E-03
 4.00000E+00    2.03400E-03
 4.25000E+00    3.08900E-03
 4.50000E+00    4.20100E-03
 4.75000E+00    5.98300E-03
 5.00000E+00    7.76400E-03
 5.50000E+00    1.31500E-02
 6.00000E+00    2.05500E-02
 6.50000E+00    3.14700E-02
 7.00000E+00    4.76800E-02
 7.50000E+00    7.20600E-02
 8.00000E+00    1.08900E-01
 8.50000E+00    1.63900E-01
 9.00000E+00    2.44700E-01
 9.50000E+00    3.60200E-01
 1.00000E+01    5.19700E-01
 1.10000E+01    1.00400E+00
 1.20000E+01    1.73800E+00
 1.30000E+01    2.70200E+00
 1.40000E+01    3.82300E+00
 1.50000E+01    4.98300E+00
 1.60000E+01    6.04000E+00
 1.70000E+01    6.84000E+00
 1.80000E+01    7.31200E+00
 1.90000E+01    7.42500E+00
 2.00000E+01    7.24600E+00
