# n + Xe129 : (n,xa)    
# jeff3.3    S.Kunieda, A.Ichihara, K.Shibata+ EVAL-FEB22
# 
# # energies =    78
#   E(MeV)        xs(mb) 
 3.98877E-02    0.00000E+00
 4.00000E-02    0.00000E+00
 5.00000E-02    0.00000E+00
 6.00000E-02    0.00000E+00
 7.00000E-02    0.00000E+00
 8.00000E-02    0.00000E+00
 9.00000E-02    0.00000E+00
 1.00000E-01    0.00000E+00
 1.20000E-01    6.61158E-05
 1.40000E-01    1.32232E-04
 1.60000E-01    1.98347E-04
 1.80000E-01    2.64463E-04
 2.00000E-01    3.30579E-04
 2.37988E-01    4.56159E-04
 2.50000E-01    4.95868E-04
 2.76426E-01    5.83228E-04
 3.00000E-01    6.61158E-04
 3.20669E-01    7.29484E-04
 3.24228E-01    7.41252E-04
 3.50000E-01    8.26447E-04
 4.00000E-01    9.91737E-04
 4.14716E-01    1.04038E-03
 4.45660E-01    1.14268E-03
 4.50000E-01    1.15703E-03
 5.00000E-01    1.32232E-03
 5.22759E-01    1.39755E-03
 5.29370E-01    1.41941E-03
 5.50000E-01    1.48761E-03
 5.77161E-01    1.57739E-03
 5.93138E-01    1.63021E-03
 6.00000E-01    1.65289E-03
 6.03216E-01    1.66353E-03
 6.50000E-01    1.81818E-03
 7.00000E-01    1.98347E-03
 7.50000E-01    2.14876E-03
 8.00000E-01    2.31405E-03
 8.50000E-01    2.47934E-03
 9.00000E-01    2.64463E-03
 9.50000E-01    2.80992E-03
 1.00000E+00    2.97521E-03
 1.20000E+00    3.63637E-03
 1.40000E+00    4.29753E-03
 1.60000E+00    4.95868E-03
 1.80000E+00    5.61984E-03
 2.00000E+00    6.28100E-03
 2.20000E+00    7.05300E-03
 2.40000E+00    8.06200E-03
 2.60000E+00    9.32200E-03
 2.80000E+00    1.08600E-02
 3.00000E+00    1.26900E-02
 3.25000E+00    1.53300E-02
 3.50000E+00    1.87000E-02
 3.75000E+00    2.23300E-02
 4.00000E+00    2.69000E-02
 4.25000E+00    3.11300E-02
 4.50000E+00    3.61500E-02
 4.75000E+00    4.22400E-02
 5.00000E+00    4.79900E-02
 5.50000E+00    6.14700E-02
 6.00000E+00    7.66300E-02
 6.50000E+00    9.39300E-02
 7.00000E+00    1.14300E-01
 7.50000E+00    1.39302E-01
 8.00000E+00    1.72109E-01
 8.50000E+00    2.17435E-01
 9.00000E+00    2.80926E-01
 9.50000E+00    3.69593E-01
 1.00000E+01    4.91414E-01
 1.10000E+01    8.58939E-01
 1.20000E+01    1.43872E+00
 1.30000E+01    2.22681E+00
 1.40000E+01    3.18780E+00
 1.50000E+01    4.26480E+00
 1.60000E+01    5.40890E+00
 1.70000E+01    6.58200E+00
 1.80000E+01    7.75800E+00
 1.90000E+01    8.92300E+00
 2.00000E+01    1.00700E+01
