# n + Xe129 : (n,xp)    
# jeff3.3    S.Kunieda, A.Ichihara, K.Shibata+ EVAL-FEB22
# 
# # energies =    78
#   E(MeV)        xs(mb) 
 3.98877E-02    0.00000E+00
 4.00000E-02    0.00000E+00
 5.00000E-02    0.00000E+00
 6.00000E-02    0.00000E+00
 7.00000E-02    0.00000E+00
 8.00000E-02    0.00000E+00
 9.00000E-02    0.00000E+00
 1.00000E-01    0.00000E+00
 1.20000E-01    2.36000E-14
 1.40000E-01    4.72000E-14
 1.60000E-01    7.08000E-14
 1.80000E-01    9.44000E-14
 2.00000E-01    1.18000E-13
 2.37988E-01    3.71379E-13
 2.50000E-01    4.51500E-13
 2.76426E-01    1.01887E-12
 3.00000E-01    1.52500E-12
 3.20669E-01    2.34720E-12
 3.24228E-01    2.48881E-12
 3.50000E-01    3.51400E-12
 4.00000E-01    9.24300E-12
 4.14716E-01    1.35244E-11
 4.45660E-01    2.25274E-11
 4.50000E-01    2.37900E-11
 5.00000E-01    5.84900E-11
 5.22759E-01    9.37707E-11
 5.29370E-01    1.04020E-10
 5.50000E-01    1.36000E-10
 5.77161E-01    2.30141E-10
 5.93138E-01    2.85517E-10
 6.00000E-01    3.09300E-10
 6.03216E-01    3.34684E-10
 6.50000E-01    7.03900E-10
 7.00000E-01    1.49000E-09
 7.50000E-01    3.36700E-09
 8.00000E-01    6.74100E-09
 8.50000E-01    1.45400E-08
 9.00000E-01    2.75800E-08
 9.50000E-01    5.65500E-08
 1.00000E+00    1.02900E-07
 1.20000E+00    1.11600E-06
 1.40000E+00    8.24900E-06
 1.60000E+00    4.18700E-05
 1.80000E+00    1.43000E-04
 2.00000E+00    3.98500E-04
 2.20000E+00    9.61800E-04
 2.40000E+00    2.07000E-03
 2.60000E+00    4.04800E-03
 2.80000E+00    7.30000E-03
 3.00000E+00    1.22700E-02
 3.25000E+00    2.15200E-02
 3.50000E+00    3.49700E-02
 3.75000E+00    5.32000E-02
 4.00000E+00    7.54600E-02
 4.25000E+00    1.03600E-01
 4.50000E+00    1.34300E-01
 4.75000E+00    1.64400E-01
 5.00000E+00    2.03800E-01
 5.50000E+00    2.79200E-01
 6.00000E+00    3.62500E-01
 6.50000E+00    4.67200E-01
 7.00000E+00    6.18300E-01
 7.50000E+00    8.49800E-01
 8.00000E+00    1.20300E+00
 8.50000E+00    1.72000E+00
 9.00000E+00    2.44300E+00
 9.50000E+00    3.40800E+00
 1.00000E+01    4.64900E+00
 1.10000E+01    8.04711E+00
 1.20000E+01    1.27894E+01
 1.30000E+01    1.91754E+01
 1.40000E+01    2.71007E+01
 1.50000E+01    3.65700E+01
 1.60000E+01    4.74640E+01
 1.70000E+01    5.97300E+01
 1.80000E+01    7.34300E+01
 1.90000E+01    8.83500E+01
 2.00000E+01    1.04440E+02
