# n + Re187 : (n,xn)    
# jendl.ad   N.Iwamoto                         EVAL-Apr14
# 
# # energies =    99
#   E(MeV)        xs(mb) 
 1.05000E-01    0.00000E+00
 1.10000E-01    5.13969E-03
 1.20000E-01    6.00072E-03
 1.30000E-01    6.76900E-03
 1.34967E-01    7.11081E-03
 1.40000E-01    2.41266E+02
 1.50000E-01    3.33650E+02
 1.60000E-01    3.91217E+02
 1.70000E-01    4.29334E+02
 1.80000E-01    4.60585E+02
 1.90000E-01    4.87810E+02
 2.00000E-01    5.12549E+02
 2.07357E-01    5.29650E+02
 2.25000E-01    6.31783E+02
 2.50000E-01    7.04865E+02
 2.75000E-01    7.70637E+02
 3.00000E-01    8.31988E+02
 3.04765E-01    8.43301E+02
 3.92104E-01    1.13281E+03
 4.00000E-01    1.15325E+03
 5.00000E-01    1.37766E+03
 5.14527E-01    1.40609E+03
 5.85130E-01    1.58261E+03
 5.92314E-01    1.65869E+03
 5.92315E-01    1.65870E+03
 6.00000E-01    1.73258E+03
 6.21698E-01    1.82232E+03
 6.28888E-01    1.87182E+03
 6.50722E-01    1.95646E+03
 6.89475E-01    2.11334E+03
 7.00000E-01    2.16701E+03
 7.22608E-01    2.22816E+03
 7.47009E-01    2.30390E+03
 7.71942E-01    2.35453E+03
 7.77070E-01    2.37666E+03
 8.00000E-01    2.43930E+03
 8.20970E-01    2.47648E+03
 8.21408E-01    2.48050E+03
 8.31251E-01    2.51816E+03
 8.49418E-01    2.56289E+03
 8.69305E-01    2.60616E+03
 8.84204E-01    2.63476E+03
 9.00000E-01    2.66708E+03
 9.38657E-01    2.71498E+03
 9.53115E-01    2.73600E+03
 9.65360E-01    2.75007E+03
 9.74530E-01    2.76366E+03
 9.84282E-01    2.77616E+03
 1.00000E+00    2.79605E+03
 1.00633E+00    2.80223E+03
 1.00855E+00    2.80606E+03
 1.10000E+00    2.86651E+03
 1.20000E+00    2.91560E+03
 1.30000E+00    2.96471E+03
 1.40000E+00    3.00219E+03
 1.50000E+00    3.03005E+03
 1.60000E+00    3.05059E+03
 1.70000E+00    3.06490E+03
 1.80000E+00    3.07411E+03
 1.90000E+00    3.07878E+03
 2.00000E+00    3.07950E+03
 2.25000E+00    3.06966E+03
 2.50000E+00    3.04003E+03
 2.75000E+00    3.00633E+03
 3.00000E+00    2.96941E+03
 3.50000E+00    2.90383E+03
 4.00000E+00    2.86062E+03
 4.50000E+00    2.83660E+03
 5.00000E+00    2.82047E+03
 5.50000E+00    2.79996E+03
 6.00000E+00    2.77589E+03
 6.50000E+00    2.74853E+03
 7.00000E+00    2.72367E+03
 7.50000E+00    2.70427E+03
 8.00000E+00    2.97832E+03
 8.50000E+00    3.53810E+03
 9.00000E+00    4.04814E+03
 9.50000E+00    4.40847E+03
 1.00000E+01    4.63672E+03
 1.05000E+01    4.77144E+03
 1.10000E+01    4.84630E+03
 1.15000E+01    4.88508E+03
 1.20000E+01    4.90218E+03
 1.25000E+01    4.90694E+03
 1.30000E+01    4.90496E+03
 1.35000E+01    4.89976E+03
 1.40000E+01    4.89379E+03
 1.45000E+01    4.90690E+03
 1.50000E+01    4.97553E+03
 1.55000E+01    5.11456E+03
 1.60000E+01    5.30899E+03
 1.65000E+01    5.52820E+03
 1.70000E+01    5.75115E+03
 1.75000E+01    5.95965E+03
 1.80000E+01    6.12162E+03
 1.85000E+01    6.25485E+03
 1.90000E+01    6.37509E+03
 1.95000E+01    6.45499E+03
 2.00000E+01    6.50383E+03
