# n + Al 27 : (n,a)m    
# jendl.ad   Y.HARIMA,H.KITAZAWA,T.FUKAHORI    EVAL-MAR88
# uncertainties: n
# # energies =   109
#   E(MeV)       xs(mb) 
 3.73888E+00    0.00000E+00
 3.73952E+00    0.00000E+00
 3.85000E+00    5.48250E-18
 3.90000E+00    7.96370E-18
 3.95000E+00    1.04450E-17
 4.00000E+00    1.29260E-17
 4.05000E+00    1.22220E-17
 4.10000E+00    1.15180E-17
 4.10472E+00    1.14520E-17
 4.15000E+00    4.43510E-13
 4.20000E+00    9.33220E-13
 4.20617E+00    9.93700E-13
 4.25000E+00    1.28290E-10
 4.30000E+00    2.73520E-10
 4.35000E+00    4.18750E-10
 4.40000E+00    5.63990E-10
 4.45000E+00    7.09220E-10
 4.50000E+00    8.54450E-10
 4.55000E+00    4.91790E-08
 4.57507E+00    7.34080E-08
 4.60000E+00    7.85140E-08
 4.65000E+00    8.87540E-08
 4.67891E+00    9.46760E-08
 4.70000E+00    1.29950E-07
 4.75000E+00    2.13570E-07
 4.75122E+00    2.15610E-07
 4.80000E+00    7.16660E-06
 4.85000E+00    1.42910E-05
 4.90000E+00    2.14154E-05
 4.95000E+00    2.85398E-05
 4.99148E+00    3.44495E-05
 5.00000E+00    3.57264E-05
 5.10000E+00    3.07043E-04
 5.20000E+00    5.78359E-04
 5.30000E+00    8.49675E-04
 5.34833E+00    9.80813E-04
 5.40000E+00    1.96812E-03
 5.44419E+00    2.81255E-03
 5.50000E+00    5.48793E-03
 5.62252E+00    1.13609E-02
 5.63590E+00    1.21762E-02
 5.64171E+00    1.25452E-02
 5.70000E+00    1.72063E-02
 5.70540E+00    1.76382E-02
 5.75841E+00    2.36017E-02
 5.87916E+00    5.13283E-02
 5.96662E+00    7.66549E-02
 6.00000E+00    8.93322E-02
 6.04483E+00    1.24241E-01
 6.10000E+00    1.59965E-01
 6.18312E+00    2.13790E-01
 6.30000E+00    4.15752E-01
 6.50000E+00    7.61332E-01
 6.70000E+00    1.72353E+00
 6.90000E+00    2.68572E+00
 7.00000E+00    3.16682E+00
 7.10000E+00    4.23874E+00
 7.30000E+00    6.38259E+00
 7.50000E+00    8.52645E+00
 7.70000E+00    1.17683E+01
 7.90000E+00    1.50102E+01
 8.00000E+00    1.66311E+01
 8.12500E+00    1.89331E+01
 8.37500E+00    2.35369E+01
 8.50000E+00    2.58388E+01
 8.75000E+00    3.10800E+01
 9.00000E+00    3.63212E+01
 9.25000E+00    4.09284E+01
 9.50000E+00    4.55357E+01
 1.00000E+01    5.20915E+01
 1.05000E+01    5.87150E+01
 1.10000E+01    6.27877E+01
 1.12500E+01    6.47690E+01
 1.15000E+01    6.67504E+01
 1.22000E+01    6.82268E+01
 1.25000E+01    6.88596E+01
 1.26000E+01    6.85626E+01
 1.29000E+01    6.76716E+01
 1.30000E+01    6.73746E+01
 1.31000E+01    6.66038E+01
 1.33000E+01    6.50622E+01
 1.34750E+01    6.37133E+01
 1.35000E+01    6.35206E+01
 1.36000E+01    6.28352E+01
 1.37000E+01    6.21498E+01
 1.38000E+01    6.14644E+01
 1.39000E+01    6.07790E+01
 1.40000E+01    6.00935E+01
 1.41000E+01    5.90089E+01
 1.42000E+01    5.79242E+01
 1.43000E+01    5.68396E+01
 1.44000E+01    5.57549E+01
 1.45000E+01    5.46703E+01
 1.46000E+01    5.33100E+01
 1.47000E+01    5.19497E+01
 1.48000E+01    5.05895E+01
 1.49000E+01    4.92292E+01
 1.55000E+01    4.10677E+01
 1.60000E+01    3.61730E+01
 1.65000E+01    3.04362E+01
 1.70000E+01    2.57616E+01
 1.75000E+01    2.21716E+01
 1.80000E+01    1.80483E+01
 1.85000E+01    1.53498E+01
 1.90000E+01    1.23941E+01
 1.92500E+01    1.13401E+01
 1.95000E+01    1.02861E+01
 1.97500E+01    9.50403E+00
 2.00000E+01    8.72198E+00
