# n + Pm147 : (n,xt)    
# jendl4.0   N.Iwamoto                         EVAL-Dec09
# 
# # energies =    88
#   E(MeV)        xs(mb) 
 9.17255E-02    0.00000E+00
 1.00000E-01    0.00000E+00
 1.05000E-01    0.00000E+00
 1.10000E-01    0.00000E+00
 1.20000E-01    0.00000E+00
 1.30000E-01    0.00000E+00
 1.40000E-01    0.00000E+00
 1.50000E-01    0.00000E+00
 1.60000E-01    0.00000E+00
 1.70000E-01    0.00000E+00
 1.80000E-01    0.00000E+00
 1.90000E-01    0.00000E+00
 2.00000E-01    0.00000E+00
 2.25000E-01    0.00000E+00
 2.50000E-01    0.00000E+00
 2.75000E-01    0.00000E+00
 3.00000E-01    0.00000E+00
 3.52403E-01    0.00000E+00
 3.82609E-01    0.00000E+00
 4.00000E-01    0.00000E+00
 4.11002E-01    0.00000E+00
 4.11003E-01    0.00000E+00
 4.13328E-01    0.00000E+00
 4.92609E-01    0.00000E+00
 5.00000E-01    0.00000E+00
 5.03433E-01    0.00000E+00
 5.34656E-01    0.00000E+00
 6.00000E-01    0.00000E+00
 6.24257E-01    0.00000E+00
 6.37145E-01    0.00000E+00
 6.45703E-01    0.00000E+00
 6.53758E-01    0.00000E+00
 6.64531E-01    0.00000E+00
 6.71781E-01    0.00000E+00
 6.85132E-01    0.00000E+00
 6.90599E-01    0.00000E+00
 7.00000E-01    0.00000E+00
 8.00000E-01    0.00000E+00
 9.00000E-01    0.00000E+00
 1.00000E+00    0.00000E+00
 1.10000E+00    0.00000E+00
 1.20000E+00    0.00000E+00
 1.30000E+00    0.00000E+00
 1.40000E+00    0.00000E+00
 1.50000E+00    0.00000E+00
 1.60000E+00    0.00000E+00
 1.70000E+00    0.00000E+00
 1.80000E+00    0.00000E+00
 1.90000E+00    0.00000E+00
 2.00000E+00    0.00000E+00
 2.25000E+00    0.00000E+00
 2.50000E+00    0.00000E+00
 2.75000E+00    0.00000E+00
 3.00000E+00    0.00000E+00
 3.50000E+00    0.00000E+00
 4.00000E+00    0.00000E+00
 4.50000E+00    0.00000E+00
 5.00000E+00    1.80168E-18
 5.50000E+00    3.73411E-18
 6.00000E+00    5.96750E-18
 6.50000E+00    1.02940E-13
 7.00000E+00    4.71650E-11
 7.50000E+00    2.76900E-09
 8.00000E+00    4.62320E-08
 8.50000E+00    3.45270E-07
 9.00000E+00    1.56475E-06
 9.50000E+00    5.70410E-06
 1.00000E+01    2.17393E-05
 1.05000E+01    9.04315E-05
 1.10000E+01    3.57911E-04
 1.15000E+01    1.23492E-03
 1.20000E+01    3.59214E-03
 1.25000E+01    9.20714E-03
 1.30000E+01    2.06112E-02
 1.35000E+01    4.08500E-02
 1.40000E+01    7.27709E-02
 1.45000E+01    1.18398E-01
 1.50000E+01    1.78656E-01
 1.55000E+01    2.53862E-01
 1.60000E+01    3.40575E-01
 1.65000E+01    4.40621E-01
 1.70000E+01    5.51978E-01
 1.75000E+01    6.72968E-01
 1.80000E+01    8.02178E-01
 1.85000E+01    9.34284E-01
 1.90000E+01    1.07148E+00
 1.95000E+01    1.21220E+00
 2.00000E+01    1.35542E+00
