# n + Sn  0 : (n,h)
# jendl.ad   N.Iwamoto                         EVAL-Apr14
# uncertainties: n
# # energies =    67
#   E(MeV)          xs(mb) 
 5.21476E+00    0.00000E+00
 5.87845E+00    5.32890E-22
 6.70116E+00    1.22200E-21
 6.70386E+00    1.22460E-21
 6.77111E+00    1.32010E-21
 6.96170E+00    1.61320E-21
 7.01432E+00    1.69420E-21
 7.04055E+00    2.00110E-21
 7.23279E+00    5.44220E-21
 7.31236E+00    6.87640E-21
 7.31239E+00    6.87700E-21
 7.39708E+00    8.40600E-21
 7.41845E+00    8.79180E-21
 7.43257E+00    9.04680E-21
 7.45485E+00    9.44920E-21
 7.48560E+00    1.00050E-20
 7.50000E+00    1.04200E-20
 7.52283E+00    4.58930E-19
 7.56786E+00    1.34380E-18
 7.59181E+00    1.81440E-18
 7.60108E+00    1.99660E-18
 7.61319E+00    2.23460E-18
 7.61722E+00    2.31380E-18
 7.62126E+00    2.39320E-18
 7.64144E+00    2.78990E-18
 7.66868E+00    3.32530E-18
 7.66994E+00    3.35000E-18
 7.68785E+00    3.70210E-18
 7.71447E+00    4.22530E-18
 7.71706E+00    4.27620E-18
 7.71872E+00    4.30890E-18
 7.77734E+00    5.46110E-18
 7.79917E+00    5.89020E-18
 7.80435E+00    5.99200E-18
 7.87167E+00    7.31530E-18
 7.88860E+00    7.64810E-18
 7.89862E+00    7.84510E-18
 7.90076E+00    7.88710E-18
 7.90116E+00    7.89500E-18
 7.94483E+00    8.75340E-18
 7.94657E+00    8.78760E-18
 7.99358E+00    9.71160E-18
 8.00000E+00    9.83780E-18
 8.50000E+00    4.65280E-15
 9.00000E+00    4.51900E-13
 9.50000E+00    1.46590E-11
 1.00000E+01    2.16750E-10
 1.05000E+01    1.80490E-09
 1.10000E+01    9.71130E-09
 1.15000E+01    3.76910E-08
 1.20000E+01    1.12930E-07
 1.25000E+01    2.79850E-07
 1.30000E+01    6.03990E-07
 1.35000E+01    1.21335E-06
 1.40000E+01    2.40994E-06
 1.45000E+01    5.02081E-06
 1.50000E+01    1.11188E-05
 1.55000E+01    2.58628E-05
 1.60000E+01    5.52369E-05
 1.65000E+01    1.21543E-04
 1.70000E+01    2.54532E-04
 1.75000E+01    5.04692E-04
 1.80000E+01    9.46570E-04
 1.85000E+01    1.68991E-03
 1.90000E+01    2.87375E-03
 1.95000E+01    4.66745E-03
 2.00000E+01    7.26185E-03
