# n + Si  0 : (n,n')
# jendl4.0   K.Shibata, S.Kunieda              EVAL-AUG07
# uncertainties: n
# # energies =    83
#   E(MeV)          xs(mb) 
 1.84314E+00    1.31430E+01
 1.96000E+00    1.43648E+02
 2.01000E+00    1.45950E+02
 2.06000E+00    2.22421E+02
 2.11000E+00    2.88947E+02
 2.16000E+00    2.00298E+02
 2.20000E+00    3.54051E+02
 2.25000E+00    4.92289E+02
 2.30000E+00    3.08643E+02
 2.35000E+00    5.07855E+02
 2.40000E+00    6.39088E+02
 2.45000E+00    6.38433E+02
 2.51000E+00    5.40104E+02
 2.56000E+00    3.55717E+02
 2.61000E+00    3.14291E+02
 2.66000E+00    3.14368E+02
 2.76000E+00    3.90152E+02
 2.81000E+00    4.99061E+02
 2.86000E+00    7.14034E+02
 2.91000E+00    6.23726E+02
 2.96000E+00    3.99685E+02
 3.01000E+00    2.87987E+02
 3.06000E+00    4.00623E+02
 3.11000E+00    5.16947E+02
 3.16000E+00    5.17062E+02
 3.21000E+00    5.63680E+02
 3.26000E+00    8.02288E+02
 3.31000E+00    7.20858E+02
 3.36000E+00    6.62485E+02
 3.41000E+00    6.53917E+02
 3.46000E+00    5.73409E+02
 3.51000E+00    5.49970E+02
 3.56000E+00    5.42673E+02
 3.61000E+00    4.37613E+02
 3.66000E+00    3.17248E+02
 3.71000E+00    4.76393E+02
 3.76000E+00    7.53659E+02
 3.81000E+00    7.63732E+02
 3.86000E+00    6.27158E+02
 3.91000E+00    6.01378E+02
 3.96000E+00    6.29578E+02
 4.05000E+00    5.75667E+02
 4.15000E+00    7.00673E+02
 4.15000E+00    7.00673E+02
 4.50000E+00    5.30326E+02
 4.78439E+00    5.29814E+02
 5.00000E+00    5.67974E+02
 5.15944E+00    5.68031E+02
 5.50000E+00    5.95065E+02
 6.00000E+00    6.02643E+02
 6.50000E+00    5.68899E+02
 6.50248E+00    5.68595E+02
 6.93265E+00    5.55191E+02
 7.00000E+00    5.57400E+02
 7.12680E+00    5.43983E+02
 7.13603E+00    5.43752E+02
 7.50000E+00    5.57082E+02
 7.64670E+00    5.44990E+02
 7.68368E+00    5.43885E+02
 8.00000E+00    5.51992E+02
 8.08018E+00    5.46720E+02
 8.21953E+00    5.42355E+02
 8.50000E+00    5.44685E+02
 8.55645E+00    5.40401E+02
 8.62867E+00    5.36734E+02
 8.71663E+00    5.33982E+02
 8.85163E+00    5.33818E+02
 8.89835E+00    5.33878E+02
 9.00000E+00    5.37721E+02
 9.13696E+00    5.33985E+02
 9.50000E+00    5.33708E+02
 1.00000E+01    5.23157E+02
 1.10000E+01    5.08294E+02
 1.20000E+01    5.18089E+02
 1.30000E+01    5.15969E+02
 1.40000E+01    4.50295E+02
 1.45000E+01    4.12576E+02
 1.50000E+01    3.83386E+02
 1.60000E+01    3.45013E+02
 1.70000E+01    3.12327E+02
 1.80000E+01    2.84305E+02
 1.90000E+01    2.60323E+02
 2.00000E+01    2.39605E+02
