# n + Si  0 : (n,xa)
# jendl4.0   K.Shibata, S.Kunieda              EVAL-AUG07
#
# # energies =    83
#   E(MeV)          xs(mb) 
 1.84314E+00    1.10112E-03
 1.96000E+00    1.46908E-03
 2.01000E+00    2.05110E-03
 2.06000E+00    4.33146E-03
 2.11000E+00    6.61181E-03
 2.16000E+00    8.89215E-03
 2.20000E+00    1.07164E-02
 2.25000E+00    1.29967E-02
 2.30000E+00    1.52771E-02
 2.35000E+00    1.75574E-02
 2.40000E+00    1.98378E-02
 2.45000E+00    2.21181E-02
 2.51000E+00    2.66580E-02
 2.56000E+00    3.79581E-02
 2.61000E+00    4.92582E-02
 2.66000E+00    6.05584E-02
 2.76000E+00    8.31586E-02
 2.81000E+00    9.44587E-02
 2.86000E+00    1.05759E-01
 2.91000E+00    1.17059E-01
 2.96000E+00    1.28359E-01
 3.01000E+00    1.43291E-01
 3.06000E+00    1.72747E-01
 3.11000E+00    2.02204E-01
 3.16000E+00    2.31661E-01
 3.21000E+00    2.61117E-01
 3.26000E+00    2.90573E-01
 3.31000E+00    3.20029E-01
 3.36000E+00    3.49485E-01
 3.41000E+00    3.78941E-01
 3.46000E+00    4.08397E-01
 3.51000E+00    4.40401E-01
 3.56000E+00    4.82595E-01
 3.61000E+00    5.24790E-01
 3.66000E+00    5.66984E-01
 3.71000E+00    6.09179E-01
 3.76000E+00    6.51373E-01
 3.81000E+00    6.93568E-01
 3.86000E+00    7.35762E-01
 3.91000E+00    7.77957E-01
 3.96000E+00    8.20152E-01
 4.05000E+00    9.00355E-01
 4.15000E+00    9.93250E-01
 4.15000E+00    9.93250E-01
 4.50000E+00    1.31838E+00
 4.78439E+00    1.75326E+00
 5.00000E+00    2.08295E+00
 5.15944E+00    3.10953E+00
 5.50000E+00    5.30223E+00
 6.00000E+00    1.68682E+01
 6.50000E+00    3.08985E+01
 6.50248E+00    2.90865E+01
 6.93265E+00    4.70792E+01
 7.00000E+00    7.68807E+01
 7.12680E+00    7.43297E+01
 7.13603E+00    7.34749E+01
 7.50000E+00    1.27965E+02
 7.64670E+00    1.99438E+02
 7.68368E+00    1.19686E+02
 8.00000E+00    1.53306E+02
 8.08018E+00    1.56880E+02
 8.21953E+00    1.63089E+02
 8.50000E+00    1.75589E+02
 8.55645E+00    1.77177E+02
 8.62867E+00    1.79209E+02
 8.71663E+00    1.81684E+02
 8.85163E+00    1.85481E+02
 8.89835E+00    1.86796E+02
 9.00000E+00    1.89656E+02
 9.13696E+00    1.90904E+02
 9.50000E+00    1.97461E+02
 1.00000E+01    2.07930E+02
 1.10000E+01    2.18517E+02
 1.20000E+01    2.26338E+02
 1.30000E+01    2.27853E+02
 1.40000E+01    2.22418E+02
 1.45000E+01    2.19299E+02
 1.50000E+01    2.19293E+02
 1.60000E+01    2.23413E+02
 1.70000E+01    2.24531E+02
 1.80000E+01    2.20809E+02
 1.90000E+01    2.17833E+02
 2.00000E+01    2.14357E+02
