# n + Zn 64 : (n,h)     
# jendl4.0   N.Iwamoto                         EVAL-Dec09
# uncertainties: n
# # energies =    57
#   E(MeV)       xs(mb) 
 6.21392E+00    0.00000E+00
 7.40533E+00    9.81590E-11
 8.29484E+00    1.82430E-10
 8.50000E+00    2.03010E-10
 8.55203E+00    1.93760E-09
 8.58713E+00    3.11490E-09
 9.00000E+00    1.70290E-08
 9.15073E+00    1.27580E-07
 9.32068E+00    2.52220E-07
 9.42172E+00    3.26330E-07
 9.44053E+00    3.40130E-07
 9.50000E+00    3.83740E-07
 9.52300E+00    5.33200E-07
 9.52738E+00    5.61670E-07
 9.53543E+00    6.13980E-07
 9.54309E+00    6.63760E-07
 9.63735E+00    1.27633E-06
 9.64521E+00    1.32741E-06
 9.73054E+00    1.88195E-06
 9.75492E+00    2.04040E-06
 9.76914E+00    2.13281E-06
 9.78793E+00    2.25492E-06
 9.79237E+00    2.28378E-06
 1.00000E+01    3.63313E-06
 1.00302E+01    4.57310E-06
 1.01186E+01    7.32455E-06
 1.01240E+01    7.49263E-06
 1.01277E+01    7.60779E-06
 1.01348E+01    7.82878E-06
 1.02435E+01    1.12121E-05
 1.02495E+01    1.13988E-05
 1.02740E+01    1.21614E-05
 1.02960E+01    1.28461E-05
 1.03126E+01    1.33628E-05
 1.03330E+01    1.39978E-05
 1.03405E+01    1.42312E-05
 1.04233E+01    1.68084E-05
 1.05000E+01    1.91957E-05
 1.10000E+01    6.83142E-05
 1.15000E+01    1.85069E-04
 1.20000E+01    4.10594E-04
 1.25000E+01    7.81221E-04
 1.30000E+01    1.31315E-03
 1.35000E+01    1.99940E-03
 1.40000E+01    2.82464E-03
 1.45000E+01    3.80525E-03
 1.50000E+01    5.00811E-03
 1.55000E+01    6.52801E-03
 1.60000E+01    8.58314E-03
 1.65000E+01    1.14357E-02
 1.70000E+01    1.53738E-02
 1.75000E+01    2.07994E-02
 1.80000E+01    2.81715E-02
 1.85000E+01    3.79390E-02
 1.90000E+01    5.05420E-02
 1.95000E+01    6.62643E-02
 2.00000E+01    8.53159E-02
