# n + Zn 64 : (n,n'01)  
# jendl4.0   N.Iwamoto                         EVAL-Dec09
# uncertainties: n
# # energies =    88
#   E(MeV)       xs(mb) 
 1.00719E+00    0.00000E+00
 1.10000E+00    4.10690E+02
 1.20000E+00    5.46847E+02
 1.30000E+00    6.44475E+02
 1.40000E+00    7.22279E+02
 1.50000E+00    7.85681E+02
 1.60000E+00    8.35421E+02
 1.70000E+00    8.75050E+02
 1.80000E+00    9.06548E+02
 1.82774E+00    9.13834E+02
 1.90000E+00    8.51649E+02
 1.94045E+00    8.43760E+02
 2.00000E+00    8.21324E+02
 2.25000E+00    7.77437E+02
 2.34310E+00    7.60946E+02
 2.50000E+00    7.18951E+02
 2.65060E+00    6.87203E+02
 2.75000E+00    6.61424E+02
 2.77971E+00    6.54995E+02
 2.83788E+00    6.38697E+02
 3.00000E+00    5.69848E+02
 3.02680E+00    5.62253E+02
 3.04569E+00    5.52365E+02
 3.05311E+00    5.43126E+02
 3.11966E+00    5.04848E+02
 3.12633E+00    5.01283E+02
 3.14341E+00    4.93207E+02
 3.23706E+00    4.56939E+02
 3.24724E+00    4.51625E+02
 3.25649E+00    4.47469E+02
 3.29112E+00    4.31924E+02
 3.31346E+00    4.23117E+02
 3.33683E+00    4.12898E+02
 3.34920E+00    4.08092E+02
 3.35902E+00    4.02660E+02
 3.37421E+00    3.96144E+02
 3.41906E+00    3.78240E+02
 3.42299E+00    3.76309E+02
 3.46888E+00    3.58662E+02
 3.47919E+00    3.55148E+02
 3.50000E+00    3.47718E+02
 3.50677E+00    3.45622E+02
 3.51309E+00    3.43544E+02
 3.51967E+00    3.41380E+02
 3.55522E+00    3.30813E+02
 3.59453E+00    3.19020E+02
 3.60296E+00    3.16746E+02
 3.60835E+00    3.15282E+02
 3.64360E+00    3.06271E+02
 3.65396E+00    3.03810E+02
 3.65883E+00    3.02650E+02
 3.66340E+00    3.01561E+02
 3.67783E+00    2.98253E+02
 3.68423E+00    2.96800E+02
 3.68565E+00    2.96461E+02
 4.00000E+00    2.34945E+02
 4.50000E+00    1.80227E+02
 5.00000E+00    1.54398E+02
 5.50000E+00    1.36003E+02
 6.00000E+00    1.23136E+02
 6.50000E+00    1.13392E+02
 7.00000E+00    1.05695E+02
 7.50000E+00    9.94610E+01
 8.00000E+00    9.43736E+01
 8.50000E+00    9.02098E+01
 9.00000E+00    8.68251E+01
 9.50000E+00    8.40763E+01
 1.00000E+01    8.18038E+01
 1.05000E+01    7.99029E+01
 1.10000E+01    7.80619E+01
 1.15000E+01    7.63436E+01
 1.20000E+01    7.46534E+01
 1.25000E+01    7.29732E+01
 1.30000E+01    7.13061E+01
 1.35000E+01    6.97478E+01
 1.40000E+01    6.81955E+01
 1.45000E+01    6.68547E+01
 1.50000E+01    6.55165E+01
 1.55000E+01    6.43955E+01
 1.60000E+01    6.32758E+01
 1.65000E+01    6.22981E+01
 1.70000E+01    6.13209E+01
 1.75000E+01    6.03975E+01
 1.80000E+01    5.94743E+01
 1.85000E+01    5.85531E+01
 1.90000E+01    5.76320E+01
 1.95000E+01    5.67038E+01
 2.00000E+01    5.57756E+01
