# n + Zn 64 : (n,2a)    
# jendl4.0   N.Iwamoto                         EVAL-Dec09
# uncertainties: n
# # energies =    28
#   E(MeV)       xs(mb) 
 2.64303E+00    0.00000E+00
 7.00000E+00    1.64210E-20
 7.50000E+00    2.02610E-17
 8.00000E+00    4.19550E-15
 8.50000E+00    3.15900E-13
 9.00000E+00    1.20740E-11
 9.50000E+00    2.82550E-10
 1.00000E+01    4.37370E-09
 1.05000E+01    4.66500E-08
 1.10000E+01    3.67200E-07
 1.15000E+01    2.21051E-06
 1.20000E+01    1.08445E-05
 1.25000E+01    4.48327E-05
 1.30000E+01    1.60705E-04
 1.35000E+01    5.16067E-04
 1.40000E+01    1.45645E-03
 1.45000E+01    3.69297E-03
 1.50000E+01    8.54055E-03
 1.55000E+01    1.81466E-02
 1.60000E+01    3.58673E-02
 1.65000E+01    6.64265E-02
 1.70000E+01    1.16409E-01
 1.75000E+01    1.93644E-01
 1.80000E+01    3.06494E-01
 1.85000E+01    4.61732E-01
 1.90000E+01    6.64580E-01
 1.95000E+01    9.13827E-01
 2.00000E+01    1.20781E+00
