# n + Sc 45 : (n,xp)    
# jendl4.0   T.WATANABE                        EVAL-AUG88
# 
# # energies =    54
#   E(MeV)        xs(mb) 
 1.26782E-02    0.00000E+00
 2.00000E-02    0.00000E+00
 3.00000E-02    0.00000E+00
 5.00000E-02    0.00000E+00
 7.00000E-02    0.00000E+00
 1.00000E-01    0.00000E+00
 2.00000E-01    0.00000E+00
 3.00000E-01    0.00000E+00
 3.85050E-01    0.00000E+00
 3.85440E-01    0.00000E+00
 4.50000E-01    0.00000E+00
 5.00000E-01    0.00000E+00
 5.55183E-01    2.20732E-01
 7.00000E-01    8.00000E-01
 7.36130E-01    9.44520E-01
 7.36359E-01    9.45436E-01
 9.60030E-01    1.84012E+00
 9.60273E-01    1.84109E+00
 9.96467E-01    1.98587E+00
 1.00000E+00    2.00000E+00
 1.09090E+00    3.27260E+00
 1.09114E+00    3.27596E+00
 1.25000E+00    5.50000E+00
 1.26470E+00    5.70580E+00
 1.26496E+00    5.70944E+00
 1.33264E+00    6.65696E+00
 1.44051E+00    8.16714E+00
 1.46587E+00    8.52218E+00
 1.50000E+00    9.00000E+00
 1.59132E+00    1.02785E+01
 1.69920E+00    1.17888E+01
 1.69960E+00    1.17944E+01
 1.75000E+00    1.25000E+01
 1.84080E+00    1.37712E+01
 1.94263E+00    1.51968E+01
 2.00000E+00    1.60000E+01
 3.00000E+00    5.00000E+01
 4.00000E+00    7.50000E+01
 5.00000E+00    9.30000E+01
 6.00000E+00    1.07000E+02
 7.00000E+00    1.15000E+02
 8.00000E+00    1.15000E+02
 9.00000E+00    1.09000E+02
 1.00000E+01    1.00000E+02
 1.10000E+01    9.10000E+01
 1.20000E+01    8.00000E+01
 1.30000E+01    7.00000E+01
 1.40000E+01    5.90000E+01
 1.50000E+01    4.80000E+01
 1.60000E+01    3.80000E+01
 1.70000E+01    2.70000E+01
 1.80000E+01    1.70000E+01
 1.90000E+01    5.00000E+00
 2.00000E+01    9.99999E-02
