# n + Cr  0 : (n,xp)
# endfb8.0   S.Chiba,M.Chadwick,D.Hetrick      EVAL-OCT97
#
# # energies =    71
#   E(MeV)          xs(mb) 
 5.74746E-01    0.00000E+00
 8.00000E-01    0.00000E+00
 9.00000E-01    0.00000E+00
 1.00000E+00    1.61521E-06
 1.02520E+00    1.21824E-05
 1.25000E+00    1.06448E-04
 1.31460E+00    3.87484E-04
 1.50000E+00    1.19405E-03
 1.56630E+00    3.64462E-03
 1.75000E+00    1.04345E-02
 2.00000E+00    5.21096E-02
 2.01160E+00    5.82528E-02
 2.21340E+00    1.65123E-01
 2.25000E+00    1.84506E-01
 2.27550E+00    2.17300E-01
 2.36520E+00    3.32659E-01
 2.49970E+00    5.05633E-01
 2.50000E+00    5.06019E-01
 2.70660E+00    1.04204E+00
 2.72090E+00    1.07914E+00
 2.75000E+00    1.15464E+00
 2.75760E+00    1.18592E+00
 2.75860E+00    1.19003E+00
 2.82480E+00    1.46245E+00
 3.00000E+00    2.18341E+00
 3.50000E+00    4.96641E+00
 4.00000E+00    8.26624E+00
 4.50000E+00    1.15392E+01
 5.00000E+00    1.50371E+01
 5.50000E+00    2.02606E+01
 6.00000E+00    2.82252E+01
 6.50000E+00    3.88237E+01
 7.00000E+00    4.66919E+01
 7.50000E+00    5.22806E+01
 8.00000E+00    5.71563E+01
 8.50000E+00    6.11831E+01
 9.00000E+00    6.59163E+01
 9.50000E+00    7.10472E+01
 1.00000E+01    7.53956E+01
 1.10000E+01    8.43770E+01
 1.20000E+01    9.56541E+01
 1.30000E+01    1.19667E+02
 1.45000E+01    1.59755E+02
 1.60000E+01    1.92970E+02
 1.75000E+01    2.17489E+02
 2.00000E+01    2.41748E+02
 2.00000E+01    2.41748E+02
 2.20000E+01    2.89840E+02
 2.40000E+01    3.12216E+02
 2.60000E+01    3.46274E+02
 2.80000E+01    3.90447E+02
 3.00000E+01    4.27085E+02
 3.50000E+01    4.73340E+02
 4.00000E+01    5.11052E+02
 4.50000E+01    5.47823E+02
 5.00000E+01    5.75557E+02
 5.50000E+01    6.01837E+02
 6.00000E+01    6.30722E+02
 6.50000E+01    6.56458E+02
 7.00000E+01    6.81968E+02
 7.50000E+01    7.03581E+02
 8.00000E+01    7.25827E+02
 8.50000E+01    7.43725E+02
 9.00000E+01    7.62089E+02
 9.50000E+01    7.77985E+02
 1.00000E+02    7.92733E+02
 1.10000E+02    8.25105E+02
 1.20000E+02    8.53216E+02
 1.30000E+02    8.84080E+02
 1.40000E+02    9.13795E+02
 1.50000E+02    9.40618E+02
