# n + Cl 35 : (n,n'13)  
# jendl4.0   T.WATANABE                        EVAL-MAR94
# uncertainties: n
# # energies =   113
#   E(MeV)       xs(mb) 
 4.29830E+00    0.00000E+00
 4.29840E+00    1.54045E-03
 4.29973E+00    2.33951E-02
 4.30238E+00    6.67626E-02
 4.30499E+00    1.09453E-01
 4.31013E+00    1.93498E-01
 4.31512E+00    2.74918E-01
 4.31995E+00    3.53793E-01
 4.32934E+00    5.06612E-01
 4.33816E+00    6.49881E-01
 4.34644E+00    7.84196E-01
 4.35422E+00    9.10115E-01
 4.36884E+00    1.14621E+00
 4.38167E+00    1.35280E+00
 4.39293E+00    1.53357E+00
 4.40281E+00    1.69173E+00
 4.42015E+00    1.96853E+00
 4.43320E+00    2.17612E+00
 4.45285E+00    2.48752E+00
 4.47258E+00    2.79891E+00
 4.50724E+00    3.06736E+00
 4.53778E+00    3.30226E+00
 4.56467E+00    3.50779E+00
 4.58834E+00    3.68763E+00
 4.63005E+00    4.00236E+00
 4.66158E+00    4.23840E+00
 4.68537E+00    4.41543E+00
 4.72127E+00    4.68098E+00
 4.75746E+00    4.94653E+00
 4.79400E+00    5.14613E+00
 4.84934E+00    5.44553E+00
 4.90531E+00    5.74493E+00
 4.94256E+00    5.91903E+00
 4.98010E+00    6.09313E+00
 4.99430E+00    6.15319E+00
 5.00000E+00    6.17778E+00
 5.02239E+00    6.28045E+00
 5.08816E+00    6.57705E+00
 5.15479E+00    6.87365E+00
 5.16467E+00    6.90822E+00
 5.26237E+00    7.19298E+00
 5.34937E+00    7.44215E+00
 5.42667E+00    7.66016E+00
 5.49523E+00    7.85093E+00
 5.55593E+00    8.01785E+00
 5.66376E+00    8.30996E+00
 5.74601E+00    8.52905E+00
 5.80848E+00    8.69336E+00
 5.90347E+00    8.93983E+00
 6.00000E+00    9.18630E+00
 6.48074E+00    9.14037E+00
 7.00000E+00    9.09444E+00
 7.11782E+00    8.88169E+00
 7.22254E+00    8.69554E+00
 7.31543E+00    8.53265E+00
 7.48088E+00    8.24760E+00
 7.60741E+00    8.03381E+00
 7.70371E+00    7.87347E+00
 7.85046E+00    7.63296E+00
 8.00000E+00    7.39245E+00
 8.11865E+00    7.10823E+00
 8.22392E+00    6.85954E+00
 8.31715E+00    6.64194E+00
 8.39958E+00    6.45154E+00
 8.47239E+00    6.28494E+00
 8.60132E+00    5.99338E+00
 8.69930E+00    5.77472E+00
 8.77352E+00    5.61072E+00
 8.88604E+00    5.36472E+00
 9.00000E+00    5.11872E+00
 9.11932E+00    4.91981E+00
 9.22501E+00    4.74577E+00
 9.31850E+00    4.59348E+00
 9.40108E+00    4.46023E+00
 9.47394E+00    4.34364E+00
 9.60280E+00    4.13960E+00
 9.70060E+00    3.98656E+00
 9.77460E+00    3.87179E+00
 9.88666E+00    3.69963E+00
 1.00000E+01    3.52747E+00
 1.01199E+01    3.42938E+00
 1.02259E+01    3.34356E+00
 1.03196E+01    3.26846E+00
 1.04856E+01    3.13705E+00
 1.06119E+01    3.03848E+00
 1.07077E+01    2.96456E+00
 1.08528E+01    2.85367E+00
 1.10000E+01    2.74279E+00
 1.11203E+01    2.68420E+00
 1.13340E+01    2.58165E+00
 1.14969E+01    2.50475E+00
 1.16207E+01    2.44707E+00
 1.18088E+01    2.36055E+00
 1.20000E+01    2.27403E+00
 1.22425E+01    2.22100E+00
 1.24277E+01    2.18124E+00
 1.27106E+01    2.12158E+00
 1.30000E+01    2.06193E+00
 1.32431E+01    2.03537E+00
 1.36163E+01    1.99552E+00
 1.40000E+01    1.95568E+00
 1.45000E+01    1.92074E+00
 1.50000E+01    1.89686E+00
 1.54919E+01    1.88235E+00
 1.60000E+01    1.86784E+00
 1.64924E+01    1.85461E+00
 1.70000E+01    1.84137E+00
 1.74929E+01    1.82700E+00
 1.80000E+01    1.81263E+00
 1.84932E+01    1.79850E+00
 1.90000E+01    1.78437E+00
 1.94936E+01    1.76909E+00
 2.00000E+01    1.75382E+00
