# n + Cl 35 : (n,g)     
# jendl4.0   T.WATANABE                        EVAL-MAR94
# uncertainties: n
# # energies =    69
#   E(MeV)       xs(mb) 
 1.00000E-10    3.04544E+05
 5.00000E-09    8.29136E+04
 1.00000E-08    6.27887E+04
 1.50000E-08    5.27497E+04
 2.00000E-08    4.64062E+04
 2.50000E-08    4.19225E+04
 3.00000E-08    3.85339E+04
 3.50000E-08    3.54255E+04
 4.20000E-08    3.23984E+04
 5.00000E-08    2.98803E+04
 5.80000E-08    2.77682E+04
 6.70000E-08    2.56215E+04
 8.00000E-08    2.31789E+04
 1.00000E-07    2.01566E+04
 1.40000E-07    1.73819E+04
 1.80000E-07    1.55108E+04
 2.20000E-07    1.42761E+04
 2.50000E-07    1.34341E+04
 2.80000E-07    1.28294E+04
 3.00000E-07    1.24041E+04
 3.20000E-07    1.19309E+04
 3.50000E-07    1.12774E+04
 4.00000E-07    1.03067E+04
 5.00000E-07    9.20240E+03
 6.25000E-07    8.21579E+03
 7.80000E-07    7.59052E+03
 8.50000E-07    7.29572E+03
 9.10000E-07    7.08973E+03
 9.50000E-07    6.97042E+03
 9.72000E-07    6.88608E+03
 9.96000E-07    6.80097E+03
 1.02000E-06    6.71726E+03
 1.04500E-06    6.63339E+03
 1.07100E-06    6.55078E+03
 1.09700E-06    6.47080E+03
 1.12300E-06    6.39281E+03
 1.15000E-06    6.15581E+03
 1.30000E-06    5.74554E+03
 1.50000E-06    5.07280E+03
 2.10000E-06    4.37914E+03
 2.60000E-06    3.87662E+03
 3.30000E-06    3.44184E+03
 4.00000E-06    2.53354E+03
 9.87700E-06    1.62272E+03
 1.59680E-05    1.11464E+03
 2.77000E-05    6.93690E+02
 4.80520E-05    4.10609E+02
 7.55014E-05    2.03459E+02
 1.48728E-04    6.30478E+01
 3.67262E-04    9.92279E+02
 9.06898E-04    6.17908E+00
 1.42510E-03    7.90104E-01
 2.23945E-03    2.90104E-01
 3.51910E-03    5.31063E+01
 5.53000E-03    5.96117E-02
 9.11800E-03    9.83260E+00
 1.50300E-02    3.80184E+01
 2.47800E-02    5.84190E+00
 4.08500E-02    5.07509E+00
 6.73400E-02    9.78545E-01
 1.11000E-01    3.01203E+00
 1.83000E-01    2.90634E+00
 3.02000E-01    1.33809E+00
 5.00000E-01    1.15080E+00
 8.21000E-01    1.09493E+00
 1.35300E+00    1.03394E+00
 2.23100E+00    8.05394E-01
 3.67900E+00    3.33074E-01
 6.06500E+00    1.36800E-01
