# n + Cl 35 : (n,n'10)  
# jendl4.0   T.WATANABE                        EVAL-MAR94
# uncertainties: n
# # energies =   106
#   E(MeV)       xs(mb) 
 4.17618E+00    0.00000E+00
 4.17630E+00    3.60242E-03
 4.17802E+00    5.77608E-02
 4.18137E+00    1.62692E-01
 4.18450E+00    2.61066E-01
 4.19039E+00    4.45515E-01
 4.19555E+00    6.06909E-01
 4.20007E+00    7.48128E-01
 4.20799E+00    9.95261E-01
 4.21394E+00    1.18061E+00
 4.22288E+00    1.45864E+00
 4.23184E+00    1.73666E+00
 4.24721E+00    1.96305E+00
 4.25878E+00    2.13284E+00
 4.27619E+00    2.38752E+00
 4.29367E+00    2.64221E+00
 4.29830E+00    2.69190E+00
 4.31971E+00    2.90529E+00
 4.33853E+00    3.09200E+00
 4.37166E+00    3.41875E+00
 4.39667E+00    3.66381E+00
 4.41553E+00    3.84761E+00
 4.44396E+00    4.12330E+00
 4.47258E+00    4.39900E+00
 4.50724E+00    4.65785E+00
 4.53778E+00    4.88435E+00
 4.56467E+00    5.08253E+00
 4.61213E+00    5.42935E+00
 4.64804E+00    5.68947E+00
 4.70243E+00    6.07964E+00
 4.75746E+00    6.46982E+00
 4.79400E+00    6.67305E+00
 4.84934E+00    6.97788E+00
 4.90531E+00    7.28272E+00
 4.98010E+00    7.63965E+00
 4.99430E+00    7.70126E+00
 5.00000E+00    7.72719E+00
 5.02239E+00    7.83068E+00
 5.08816E+00    8.13439E+00
 5.15479E+00    8.43811E+00
 5.16467E+00    8.47265E+00
 5.26237E+00    8.74518E+00
 5.34937E+00    8.98365E+00
 5.42667E+00    9.19230E+00
 5.49523E+00    9.37488E+00
 5.61729E+00    9.69438E+00
 5.71062E+00    9.93401E+00
 5.78163E+00    1.01137E+01
 5.88980E+00    1.03833E+01
 6.00000E+00    1.06529E+01
 6.23574E+00    1.05552E+01
 6.41860E+00    1.04820E+01
 6.70300E+00    1.03721E+01
 7.00000E+00    1.02622E+01
 7.11782E+00    1.00311E+01
 7.22254E+00    9.82884E+00
 7.31543E+00    9.65188E+00
 7.48088E+00    9.34220E+00
 7.60741E+00    9.10995E+00
 7.70371E+00    8.93576E+00
 7.85046E+00    8.67447E+00
 8.00000E+00    8.41318E+00
 8.11865E+00    8.12401E+00
 8.22392E+00    7.87098E+00
 8.31715E+00    7.64958E+00
 8.39958E+00    7.45586E+00
 8.47239E+00    7.28635E+00
 8.60132E+00    6.98972E+00
 8.69930E+00    6.76724E+00
 8.77352E+00    6.60038E+00
 8.88604E+00    6.35009E+00
 9.00000E+00    6.09980E+00
 9.11932E+00    5.90087E+00
 9.22501E+00    5.72680E+00
 9.31850E+00    5.57449E+00
 9.40108E+00    5.44122E+00
 9.54736E+00    5.20800E+00
 9.65856E+00    5.03308E+00
 9.74281E+00    4.90189E+00
 9.87057E+00    4.70511E+00
 1.00000E+01    4.50833E+00
 1.01199E+01    4.41053E+00
 1.02259E+01    4.32495E+00
 1.04142E+01    4.17520E+00
 1.05576E+01    4.06288E+00
 1.06665E+01    3.97864E+00
 1.08320E+01    3.85229E+00
 1.10000E+01    3.72593E+00
 1.12419E+01    3.60993E+00
 1.14268E+01    3.52292E+00
 1.15675E+01    3.45767E+00
 1.17818E+01    3.35979E+00
 1.20000E+01    3.26191E+00
 1.22425E+01    3.21143E+00
 1.26156E+01    3.13572E+00
 1.30000E+01    3.06000E+00
 1.34907E+01    3.01234E+00
 1.40000E+01    2.96468E+00
 1.45000E+01    2.93440E+00
 1.50000E+01    2.91425E+00
 1.60000E+01    2.88884E+00
 1.70000E+01    2.86014E+00
 1.80000E+01    2.82407E+00
 1.90000E+01    2.78445E+00
 1.94936E+01    2.76191E+00
 2.00000E+01    2.73936E+00
