# n + Ba135 : (n,n')n   
# jendl.ad   N.Iwamoto                         EVAL-Apr14
# uncertainties: n
# # energies =    74
#   E(MeV)       xs(mb) 
 2.70225E-01    0.00000E+00
 2.75000E-01    1.79079E+00
 3.00000E-01    1.03651E+01
 4.00000E-01    3.93083E+01
 4.84125E-01    6.36379E+01
 5.00000E-01    6.74000E+01
 5.92222E-01    8.55550E+01
 6.00000E-01    8.68605E+01
 7.00000E-01    1.01791E+02
 7.19540E-01    1.04443E+02
 8.00000E-01    2.11325E+02
 8.61405E-01    2.55164E+02
 8.81057E-01    2.65560E+02
 9.00000E-01    2.60284E+02
 9.17096E-01    2.63213E+02
 9.58010E-01    2.72052E+02
 9.87292E-01    2.77700E+02
 1.00000E+00    2.77431E+02
 1.01554E+00    2.79690E+02
 1.10000E+00    2.81727E+02
 1.13845E+00    2.84341E+02
 1.17391E+00    2.82525E+02
 1.20000E+00    2.82831E+02
 1.20946E+00    2.82972E+02
 1.22280E+00    2.84046E+02
 1.23503E+00    2.84355E+02
 1.24767E+00    2.84722E+02
 1.30000E+00    2.83300E+02
 1.30825E+00    2.83526E+02
 1.40000E+00    2.83067E+02
 1.50000E+00    2.87598E+02
 1.60000E+00    3.02633E+02
 1.70000E+00    3.23082E+02
 1.80000E+00    3.46136E+02
 1.90000E+00    3.72059E+02
 2.00000E+00    4.01650E+02
 2.25000E+00    4.90837E+02
 2.50000E+00    5.71862E+02
 2.75000E+00    6.59061E+02
 3.00000E+00    7.33729E+02
 3.50000E+00    8.49216E+02
 4.00000E+00    9.25380E+02
 4.50000E+00    9.74617E+02
 5.00000E+00    1.01176E+03
 5.50000E+00    1.04514E+03
 6.00000E+00    1.07933E+03
 6.50000E+00    1.11371E+03
 7.00000E+00    1.14660E+03
 7.50000E+00    1.17202E+03
 8.00000E+00    1.16783E+03
 8.50000E+00    1.10964E+03
 9.00000E+00    9.99676E+02
 9.50000E+00    8.58508E+02
 1.00000E+01    6.95963E+02
 1.05000E+01    5.46004E+02
 1.10000E+01    4.25730E+02
 1.15000E+01    3.36750E+02
 1.20000E+01    2.72614E+02
 1.25000E+01    2.26435E+02
 1.30000E+01    1.93063E+02
 1.35000E+01    1.68803E+02
 1.40000E+01    1.50740E+02
 1.45000E+01    1.37390E+02
 1.50000E+01    1.27103E+02
 1.55000E+01    1.19120E+02
 1.60000E+01    1.12200E+02
 1.65000E+01    1.06509E+02
 1.70000E+01    1.01847E+02
 1.75000E+01    9.71006E+01
 1.80000E+01    9.35006E+01
 1.85000E+01    9.00080E+01
 1.90000E+01    8.67461E+01
 1.95000E+01    8.36531E+01
 2.00000E+01    8.09702E+01
