# n + Ba135 : (n,xa)    
# jendl.ad   N.Iwamoto                         EVAL-Apr14
# 
# # energies =    88
#   E(MeV)        xs(mb) 
 1.05000E-01    2.09922E-02
 1.10000E-01    2.07160E-02
 1.20000E-01    2.02276E-02
 1.30000E-01    1.97899E-02
 1.40000E-01    1.94040E-02
 1.50000E-01    1.90794E-02
 1.60000E-01    1.88222E-02
 1.70000E-01    1.87640E-02
 1.80000E-01    1.87260E-02
 1.90000E-01    1.86879E-02
 2.00000E-01    1.86499E-02
 2.22620E-01    1.85974E-02
 2.25000E-01    1.80622E-02
 2.50000E-01    1.74315E-02
 2.70225E-01    1.75067E-02
 2.75000E-01    1.74733E-02
 3.00000E-01    1.73548E-02
 4.00000E-01    1.75582E-02
 4.84125E-01    1.94141E-02
 5.00000E-01    1.82000E-02
 5.92222E-01    1.79388E-02
 6.00000E-01    1.75278E-02
 7.00000E-01    1.78929E-02
 7.19540E-01    1.82164E-02
 8.00000E-01    1.82556E-02
 8.61405E-01    1.91941E-02
 8.81057E-01    1.91943E-02
 9.00000E-01    1.88081E-02
 9.17096E-01    1.88871E-02
 9.58010E-01    1.90761E-02
 9.87292E-01    1.94342E-02
 1.00000E+00    1.92834E-02
 1.01554E+00    1.94149E-02
 1.10000E+00    2.01298E-02
 1.13845E+00    2.08314E-02
 1.17391E+00    2.12761E-02
 1.20000E+00    2.16483E-02
 1.20946E+00    2.17952E-02
 1.22280E+00    2.20085E-02
 1.23503E+00    2.20549E-02
 1.24767E+00    2.21028E-02
 1.30000E+00    2.26209E-02
 1.30825E+00    2.27678E-02
 1.40000E+00    2.44014E-02
 1.50000E+00    2.67553E-02
 1.60000E+00    2.92062E-02
 1.70000E+00    3.19707E-02
 1.80000E+00    3.50154E-02
 1.90000E+00    3.83753E-02
 2.00000E+00    4.22796E-02
 2.25000E+00    5.23632E-02
 2.50000E+00    6.84960E-02
 2.75000E+00    8.46151E-02
 3.00000E+00    1.06582E-01
 3.50000E+00    1.56591E-01
 4.00000E+00    2.16216E-01
 4.50000E+00    2.83059E-01
 5.00000E+00    3.54034E-01
 5.50000E+00    4.24934E-01
 6.00000E+00    4.93057E-01
 6.50000E+00    5.59070E-01
 7.00000E+00    6.28485E-01
 7.50000E+00    7.13576E-01
 8.00000E+00    8.25654E-01
 8.50000E+00    9.76760E-01
 9.00000E+00    1.17828E+00
 9.50000E+00    1.43840E+00
 1.00000E+01    1.75798E+00
 1.05000E+01    2.13461E+00
 1.10000E+01    2.56306E+00
 1.15000E+01    3.03686E+00
 1.20000E+01    3.54903E+00
 1.25000E+01    4.09281E+00
 1.30000E+01    4.65845E+00
 1.35000E+01    5.24327E+00
 1.40000E+01    5.84406E+00
 1.45000E+01    6.45330E+00
 1.50000E+01    7.06601E+00
 1.55000E+01    7.68277E+00
 1.60000E+01    8.28404E+00
 1.65000E+01    8.89925E+00
 1.70000E+01    9.49577E+00
 1.75000E+01    1.01118E+01
 1.80000E+01    1.07189E+01
 1.85000E+01    1.13165E+01
 1.90000E+01    1.19243E+01
 1.95000E+01    1.25469E+01
 2.00000E+01    1.31854E+01
