# n + W 184 : (n,xn)    
# jendl.ad   N.Iwamoto                         EVAL-Apr14
# 
# # energies =   100
#   E(MeV)        xs(mb) 
 1.05000E-01    0.00000E+00
 1.10000E-01    2.70978E-03
 1.11818E-01    2.93909E-03
 1.20000E-01    1.54542E+02
 1.30000E-01    2.10490E+02
 1.40000E-01    2.60872E+02
 1.50000E-01    3.07911E+02
 1.60000E-01    3.60632E+02
 1.70000E-01    4.03193E+02
 1.80000E-01    4.43846E+02
 1.90000E-01    4.82749E+02
 2.00000E-01    5.21018E+02
 2.25000E-01    6.12570E+02
 2.50000E-01    7.00231E+02
 2.75000E-01    7.79241E+02
 3.00000E-01    8.51819E+02
 3.66052E-01    1.03315E+03
 4.00000E-01    1.11714E+03
 5.00000E-01    1.32669E+03
 6.00000E-01    1.50084E+03
 7.00000E-01    1.64674E+03
 7.52413E-01    1.71266E+03
 8.00000E-01    1.75929E+03
 9.00000E-01    1.85117E+03
 9.08234E-01    1.85850E+03
 1.00000E+00    2.02378E+03
 1.00798E+00    2.03329E+03
 1.01149E+00    2.05208E+03
 1.10000E+00    2.21277E+03
 1.12759E+00    2.24694E+03
 1.13623E+00    2.27126E+03
 1.14006E+00    2.28873E+03
 1.20000E+00    2.39193E+03
 1.22799E+00    2.42928E+03
 1.25917E+00    2.47327E+03
 1.29064E+00    2.51006E+03
 1.29204E+00    2.51454E+03
 1.30000E+00    2.52708E+03
 1.30202E+00    2.52989E+03
 1.32938E+00    2.56368E+03
 1.35276E+00    2.59854E+03
 1.36783E+00    2.61783E+03
 1.39391E+00    2.64614E+03
 1.40000E+00    2.65680E+03
 1.43280E+00    2.69370E+03
 1.43885E+00    2.70166E+03
 1.45419E+00    2.72317E+03
 1.48510E+00    2.75452E+03
 1.50000E+00    2.76776E+03
 1.50018E+00    2.76792E+03
 1.50977E+00    2.77637E+03
 1.53163E+00    2.79469E+03
 1.54529E+00    2.80662E+03
 1.57885E+00    2.83034E+03
 1.59012E+00    2.84037E+03
 1.60000E+00    2.84734E+03
 1.62241E+00    2.86256E+03
 1.62372E+00    2.86474E+03
 1.70000E+00    2.91867E+03
 1.80000E+00    2.96647E+03
 1.90000E+00    3.00420E+03
 2.00000E+00    3.03235E+03
 2.25000E+00    3.07578E+03
 2.50000E+00    3.07785E+03
 2.75000E+00    3.06895E+03
 3.00000E+00    3.04761E+03
 3.50000E+00    2.99928E+03
 4.00000E+00    2.95839E+03
 4.50000E+00    2.92704E+03
 5.00000E+00    2.90133E+03
 5.50000E+00    2.87336E+03
 6.00000E+00    2.84445E+03
 6.50000E+00    2.81380E+03
 7.00000E+00    2.78497E+03
 7.50000E+00    2.78624E+03
 8.00000E+00    2.96608E+03
 8.50000E+00    3.66700E+03
 9.00000E+00    4.17091E+03
 9.50000E+00    4.41614E+03
 1.00000E+01    4.53027E+03
 1.05000E+01    4.58207E+03
 1.10000E+01    4.59943E+03
 1.15000E+01    4.59746E+03
 1.20000E+01    4.58418E+03
 1.25000E+01    4.56448E+03
 1.30000E+01    4.54081E+03
 1.35000E+01    4.51430E+03
 1.40000E+01    4.48555E+03
 1.45000E+01    4.46946E+03
 1.50000E+01    4.50272E+03
 1.55000E+01    4.59617E+03
 1.60000E+01    4.73154E+03
 1.65000E+01    4.88184E+03
 1.70000E+01    5.02823E+03
 1.75000E+01    5.15934E+03
 1.80000E+01    5.26870E+03
 1.85000E+01    5.36069E+03
 1.90000E+01    5.43435E+03
 1.95000E+01    5.48872E+03
 2.00000E+01    5.53463E+03
