# n + Pb208 : (n,xp)    
# jendl4.0   O.Iwamoto, N.Iwamoto              EVAL-MAR10
# 
# # energies =    74
#   E(MeV)        xs(mb) 
 1.50000E-01    0.00000E+00
 2.00000E-01    0.00000E+00
 4.00000E-01    0.00000E+00
 5.00000E-01    0.00000E+00
 6.00000E-01    0.00000E+00
 8.00000E-01    0.00000E+00
 1.00000E+00    0.00000E+00
 1.20000E+00    0.00000E+00
 1.40000E+00    0.00000E+00
 1.50000E+00    0.00000E+00
 1.60000E+00    0.00000E+00
 1.80000E+00    0.00000E+00
 2.00000E+00    0.00000E+00
 2.50000E+00    0.00000E+00
 2.62723E+00    0.00000E+00
 3.00000E+00    0.00000E+00
 3.21325E+00    0.00000E+00
 3.49196E+00    0.00000E+00
 3.50000E+00    0.00000E+00
 3.72643E+00    0.00000E+00
 3.93881E+00    0.00000E+00
 3.96558E+00    0.00000E+00
 3.98017E+00    0.00000E+00
 4.00000E+00    0.00000E+00
 4.01508E+00    0.00000E+00
 4.05658E+00    0.00000E+00
 4.06462E+00    0.00000E+00
 4.07014E+00    0.00000E+00
 4.10521E+00    0.00000E+00
 4.12591E+00    0.00000E+00
 4.14532E+00    0.00000E+00
 4.16108E+00    0.00000E+00
 4.17917E+00    0.00000E+00
 4.20068E+00    0.00000E+00
 4.22580E+00    0.00000E+00
 4.25001E+00    5.84414E-20
 4.25052E+00    6.07471E-20
 4.27413E+00    1.67544E-19
 4.28307E+00    2.07984E-19
 4.31701E+00    3.61506E-19
 4.33894E+00    4.60705E-19
 4.34417E+00    4.84362E-19
 4.50000E+00    1.18924E-18
 5.00000E+00    3.45092E-18
 5.50000E+00    5.71260E-18
 6.00000E+00    1.73580E-13
 6.50000E+00    1.03200E-10
 7.00000E+00    8.00850E-09
 7.50000E+00    1.84260E-07
 8.00000E+00    1.91612E-06
 8.50000E+00    1.15048E-05
 9.00000E+00    4.67575E-05
 9.50000E+00    1.45017E-04
 1.00000E+01    3.81288E-04
 1.05000E+01    9.38966E-04
 1.10000E+01    2.22847E-03
 1.15000E+01    5.28417E-03
 1.20000E+01    1.22099E-02
 1.25000E+01    2.67339E-02
 1.30000E+01    5.45660E-02
 1.35000E+01    1.04074E-01
 1.40000E+01    1.85698E-01
 1.45000E+01    3.12831E-01
 1.50000E+01    4.98537E-01
 1.55000E+01    7.57765E-01
 1.60000E+01    1.10539E+00
 1.65000E+01    1.55552E+00
 1.70000E+01    2.12066E+00
 1.75000E+01    2.81109E+00
 1.80000E+01    3.63471E+00
 1.85000E+01    4.59687E+00
 1.90000E+01    5.70046E+00
 1.95000E+01    6.94697E+00
 2.00000E+01    8.35033E+00
