# n + Pb208 :  n        
# jendl4.0   O.Iwamoto, N.Iwamoto              EVAL-MAR10
# uncertainties: n
# # energies =    74
#   E(MeV)       xs(mb) 
 1.50000E-01    0.00000E+00
 2.00000E-01    1.24053E-06
 4.00000E-01    3.18406E-05
 5.00000E-01    8.19618E-05
 6.00000E-01    1.76681E-04
 8.00000E-01    5.96614E-04
 1.00000E+00    1.56078E-03
 1.20000E+00    3.48283E-03
 1.40000E+00    6.99788E-03
 1.50000E+00    9.62982E-03
 1.60000E+00    1.30389E-02
 1.80000E+00    2.29480E-02
 2.00000E+00    3.86179E-02
 2.50000E+00    1.24955E-01
 2.62723E+00    1.67106E-01
 3.00000E+00    1.91033E-01
 3.21325E+00    2.42495E-01
 3.49196E+00    2.59620E-01
 3.50000E+00    2.57647E-01
 3.72643E+00    3.11400E-01
 3.93881E+00    3.65746E-01
 3.96558E+00    3.71143E-01
 3.98017E+00    3.71824E-01
 4.00000E+00    3.71563E-01
 4.01508E+00    3.73395E-01
 4.05658E+00    3.83089E-01
 4.06462E+00    3.83783E-01
 4.07014E+00    3.83733E-01
 4.10521E+00    3.82916E-01
 4.12591E+00    3.86376E-01
 4.14532E+00    3.85295E-01
 4.16108E+00    3.83328E-01
 4.17917E+00    3.80610E-01
 4.20068E+00    3.76663E-01
 4.22580E+00    3.75657E-01
 4.25001E+00    3.73416E-01
 4.25052E+00    3.72912E-01
 4.27413E+00    3.66592E-01
 4.28307E+00    3.63591E-01
 4.31701E+00    3.55359E-01
 4.33894E+00    3.55315E-01
 4.34417E+00    3.54291E-01
 4.50000E+00    1.78478E+01
 5.00000E+00    3.75706E+02
 5.50000E+00    8.60174E+02
 6.00000E+00    1.29365E+03
 6.50000E+00    1.64295E+03
 7.00000E+00    1.91135E+03
 7.50000E+00    2.10245E+03
 8.00000E+00    2.11482E+03
 8.50000E+00    1.93918E+03
 9.00000E+00    1.67263E+03
 9.50000E+00    1.37582E+03
 1.00000E+01    1.08869E+03
 1.05000E+01    8.56425E+02
 1.10000E+01    6.76019E+02
 1.15000E+01    5.41363E+02
 1.20000E+01    4.48034E+02
 1.25000E+01    3.84457E+02
 1.30000E+01    3.36978E+02
 1.35000E+01    3.03365E+02
 1.40000E+01    2.74892E+02
 1.45000E+01    2.55691E+02
 1.50000E+01    2.36692E+02
 1.55000E+01    2.24845E+02
 1.60000E+01    2.11600E+02
 1.65000E+01    2.02221E+02
 1.70000E+01    1.90185E+02
 1.75000E+01    1.81947E+02
 1.80000E+01    1.73750E+02
 1.85000E+01    1.67820E+02
 1.90000E+01    1.59911E+02
 1.95000E+01    1.54323E+02
 2.00000E+01    1.47908E+02
