# n + Pb208 : (n,xa)    
# jendl4.0   O.Iwamoto, N.Iwamoto              EVAL-MAR10
# 
# # energies =    74
#   E(MeV)        xs(mb) 
 1.50000E-01    7.89863E-06
 2.00000E-01    1.27803E-06
 4.00000E-01    9.96680E-07
 5.00000E-01    2.16106E-06
 6.00000E-01    2.16132E-06
 8.00000E-01    1.49660E-06
 1.00000E+00    1.22775E-06
 1.20000E+00    1.62905E-06
 1.40000E+00    2.06836E-06
 1.50000E+00    2.30360E-06
 1.60000E+00    2.54655E-06
 1.80000E+00    3.05738E-06
 2.00000E+00    3.59995E-06
 2.50000E+00    5.08696E-06
 2.62723E+00    8.58606E-06
 3.00000E+00    2.10442E-05
 3.21325E+00    3.91607E-05
 3.49196E+00    7.34454E-05
 3.50000E+00    7.43110E-05
 3.72643E+00    1.29194E-04
 3.93881E+00    2.11529E-04
 3.96558E+00    2.24167E-04
 3.98017E+00    2.30724E-04
 4.00000E+00    2.39916E-04
 4.01508E+00    2.47542E-04
 4.05658E+00    2.68622E-04
 4.06462E+00    2.72818E-04
 4.07014E+00    2.75699E-04
 4.10521E+00    2.92602E-04
 4.12591E+00    3.00957E-04
 4.14532E+00    3.07927E-04
 4.16108E+00    3.13586E-04
 4.17917E+00    3.18950E-04
 4.20068E+00    3.25329E-04
 4.22580E+00    3.32778E-04
 4.25001E+00    3.40241E-04
 4.25052E+00    3.39848E-04
 4.27413E+00    3.43478E-04
 4.28307E+00    3.44853E-04
 4.31701E+00    3.53602E-04
 4.33894E+00    3.59255E-04
 4.34417E+00    3.60718E-04
 4.50000E+00    4.12463E-04
 5.00000E+00    7.22664E-04
 5.50000E+00    1.25449E-03
 6.00000E+00    1.95731E-03
 6.50000E+00    2.85824E-03
 7.00000E+00    3.94592E-03
 7.50000E+00    5.17104E-03
 8.00000E+00    6.51239E-03
 8.50000E+00    7.98033E-03
 9.00000E+00    9.64806E-03
 9.50000E+00    1.16566E-02
 1.00000E+01    1.42459E-02
 1.05000E+01    1.80764E-02
 1.10000E+01    2.38320E-02
 1.15000E+01    3.29434E-02
 1.20000E+01    4.73936E-02
 1.25000E+01    7.03379E-02
 1.30000E+01    1.06269E-01
 1.35000E+01    1.61469E-01
 1.40000E+01    2.44137E-01
 1.45000E+01    3.63228E-01
 1.50000E+01    5.28373E-01
 1.55000E+01    7.50107E-01
 1.60000E+01    1.03297E+00
 1.65000E+01    1.38151E+00
 1.70000E+01    1.80083E+00
 1.75000E+01    2.28424E+00
 1.80000E+01    2.83497E+00
 1.85000E+01    3.44447E+00
 1.90000E+01    4.11071E+00
 1.95000E+01    4.82563E+00
 2.00000E+01    5.58839E+00
