# n + Th232 : (n,xn)    
# jendl4.0   O.Iwamoto,T.Nakagawa,et al.       EVAL-JAN10
# 
# # energies =    94
#   E(MeV)        xs(mb) 
 4.95836E-02    0.00000E+00
 5.00000E-02    8.99123E+00
 7.00000E-02    2.24079E+02
 1.00000E-01    4.56802E+02
 1.10958E-01    5.07715E+02
 1.20000E-01    5.49740E+02
 1.40000E-01    6.30118E+02
 1.62825E-01    7.16799E+02
 1.70000E-01    7.43933E+02
 2.00000E-01    8.63494E+02
 2.50000E-01    9.79399E+02
 3.00000E-01    1.10790E+03
 3.34648E-01    1.14647E+03
 4.00000E-01    1.23571E+03
 5.00000E-01    1.42855E+03
 5.59321E-01    1.49027E+03
 6.00000E-01    1.53499E+03
 7.00000E-01    1.67096E+03
 7.17355E-01    1.68697E+03
 7.33525E-01    1.74080E+03
 7.77465E-01    1.85819E+03
 7.77766E-01    1.86101E+03
 7.88714E-01    1.89935E+03
 8.00000E-01    1.94456E+03
 8.30595E-01    2.04336E+03
 8.33206E-01    2.05103E+03
 8.76795E-01    2.17924E+03
 8.87441E-01    2.20639E+03
 8.93969E-01    2.22233E+03
 9.00000E-01    2.23698E+03
 9.64575E-01    2.38080E+03
 1.00000E+00    2.45081E+03
 1.02755E+00    2.49352E+03
 1.04743E+00    2.52170E+03
 1.05446E+00    2.53190E+03
 1.05818E+00    2.53730E+03
 1.07756E+00    2.56872E+03
 1.08218E+00    2.57722E+03
 1.08339E+00    2.58095E+03
 1.09916E+00    2.61419E+03
 1.10000E+00    2.61613E+03
 1.11051E+00    2.63641E+03
 1.12668E+00    2.66636E+03
 1.14204E+00    2.69519E+03
 1.14827E+00    2.70597E+03
 1.15098E+00    2.71078E+03
 1.15329E+00    2.71472E+03
 1.20000E+00    2.78890E+03
 1.30000E+00    2.92003E+03
 1.40000E+00    3.02738E+03
 1.50000E+00    3.11600E+03
 1.60000E+00    3.18996E+03
 1.70000E+00    3.25366E+03
 1.80000E+00    3.30959E+03
 1.90000E+00    3.35425E+03
 2.00000E+00    3.39286E+03
 2.30000E+00    3.45994E+03
 2.50000E+00    3.47590E+03
 2.70000E+00    3.47960E+03
 3.00000E+00    3.46879E+03
 3.50000E+00    3.43240E+03
 4.00000E+00    3.38578E+03
 4.50000E+00    3.31982E+03
 5.00000E+00    3.27611E+03
 5.50000E+00    3.21714E+03
 6.00000E+00    3.18328E+03
 6.50000E+00    3.05692E+03
 7.00000E+00    3.11129E+03
 7.50000E+00    3.64644E+03
 8.00000E+00    4.18775E+03
 8.50000E+00    4.56516E+03
 9.00000E+00    4.82405E+03
 9.50000E+00    4.96909E+03
 1.00000E+01    5.05606E+03
 1.05000E+01    5.09149E+03
 1.10000E+01    5.11252E+03
 1.15000E+01    5.12488E+03
 1.20000E+01    5.12539E+03
 1.25000E+01    5.15335E+03
 1.30000E+01    5.25264E+03
 1.35000E+01    5.39138E+03
 1.40000E+01    5.56599E+03
 1.45000E+01    5.73043E+03
 1.50000E+01    5.82538E+03
 1.55000E+01    5.95417E+03
 1.60000E+01    6.07531E+03
 1.65000E+01    6.13641E+03
 1.70000E+01    6.18080E+03
 1.75000E+01    6.22298E+03
 1.80000E+01    6.25902E+03
 1.85000E+01    6.29285E+03
 1.90000E+01    6.31440E+03
 1.95000E+01    6.29622E+03
 2.00000E+01    6.26795E+03
