# n + Zn 67 :  n        
# endfb8.0   N.Iwamoto                         EVAL-Dec09
# uncertainties: n
# # energies =    80
#   E(MeV)       xs(mb) 
 1.05000E-01    0.00000E+00
 1.10000E-01    4.47611E-06
 1.20000E-01    5.55733E-06
 1.30000E-01    6.14040E-06
 1.40000E-01    6.40402E-06
 1.50000E-01    6.54042E-06
 1.60000E-01    6.61063E-06
 1.70000E-01    6.64527E-06
 1.80000E-01    6.65683E-06
 1.87361E-01    6.65392E-06
 1.90000E-01    6.46438E-06
 2.00000E-01    6.40919E-06
 2.25000E-01    5.65138E-05
 2.50000E-01    6.57796E-05
 2.75000E-01    6.94027E-05
 3.00000E-01    7.15806E-05
 3.99462E-01    3.14201E-04
 4.00000E-01    3.13478E-04
 5.00000E-01    8.94566E-04
 6.00000E-01    2.08564E-03
 6.13600E-01    2.83938E-03
 7.00000E-01    3.25832E-03
 8.00000E-01    5.47851E-03
 8.27050E-01    7.39192E-03
 8.84036E-01    7.85362E-03
 9.00000E-01    7.72976E-03
 9.01080E-01    7.72749E-03
 9.94607E-01    1.06487E-02
 1.00000E+00    1.04209E-02
 1.00492E+00    1.03493E-02
 1.07598E+00    1.37928E-02
 1.10000E+00    1.39007E-02
 1.16003E+00    1.80630E-02
 1.20000E+00    1.87198E-02
 1.30000E+00    3.71812E+01
 1.40000E+00    1.14470E+02
 1.50000E+00    1.99748E+02
 1.60000E+00    2.88473E+02
 1.70000E+00    3.78103E+02
 1.80000E+00    4.66157E+02
 1.90000E+00    5.51382E+02
 2.00000E+00    6.32273E+02
 2.25000E+00    8.01096E+02
 2.50000E+00    9.80756E+02
 2.75000E+00    1.10565E+03
 3.00000E+00    1.22224E+03
 3.50000E+00    1.37731E+03
 4.00000E+00    1.46739E+03
 4.50000E+00    1.51973E+03
 5.00000E+00    1.54251E+03
 5.50000E+00    1.54631E+03
 6.00000E+00    1.53910E+03
 6.50000E+00    1.52716E+03
 7.00000E+00    1.51511E+03
 7.50000E+00    1.48811E+03
 8.00000E+00    1.40895E+03
 8.50000E+00    1.29886E+03
 9.00000E+00    1.15826E+03
 9.50000E+00    1.01434E+03
 1.00000E+01    8.84986E+02
 1.05000E+01    7.60159E+02
 1.10000E+01    6.41655E+02
 1.15000E+01    5.27546E+02
 1.20000E+01    4.35064E+02
 1.25000E+01    3.62867E+02
 1.30000E+01    3.09056E+02
 1.35000E+01    2.67554E+02
 1.40000E+01    2.39203E+02
 1.45000E+01    2.13998E+02
 1.50000E+01    1.94668E+02
 1.55000E+01    1.78905E+02
 1.60000E+01    1.66474E+02
 1.65000E+01    1.55916E+02
 1.70000E+01    1.47270E+02
 1.75000E+01    1.39293E+02
 1.80000E+01    1.32468E+02
 1.85000E+01    1.26126E+02
 1.90000E+01    1.20490E+02
 1.95000E+01    1.15195E+02
 2.00000E+01    1.10373E+02
