# n + Cd116 : (n,xa)    
# jendl4.0   S.Kunieda, A.Ichihara, K.Shibata+ EVAL-FEB22
# 
# # energies =    60
#   E(MeV)        xs(mb) 
 5.17959E-01    3.24680E-24
 5.50000E-01    3.83700E-24
 6.00000E-01    9.56800E-24
 6.50000E-01    2.69000E-23
 7.00000E-01    7.38200E-23
 7.50000E-01    2.04200E-22
 8.00000E-01    5.34400E-22
 8.50000E-01    1.40800E-21
 9.00000E-01    3.48200E-21
 9.50000E-01    8.74200E-21
 1.00000E+00    2.04600E-20
 1.20000E+00    5.33700E-19
 1.22355E+00    1.33395E-18
 1.23005E+00    1.55506E-18
 1.29372E+00    3.71898E-18
 1.39232E+00    7.07005E-18
 1.40000E+00    7.33100E-18
 1.60000E+00    8.95300E-17
 1.65678E+00    3.08054E-16
 1.80000E+00    8.59200E-16
 1.93248E+00    4.72423E-15
 1.93827E+00    4.89315E-15
 1.94522E+00    5.09591E-15
 1.96834E+00    5.77041E-15
 2.00000E+00    6.69400E-15
 2.04430E+00    1.39379E-14
 2.05438E+00    1.55874E-14
 2.20000E+00    3.94000E-14
 2.40000E+00    1.89300E-13
 2.60000E+00    8.28300E-13
 2.80000E+00    3.38500E-12
 3.00000E+00    1.29900E-11
 3.25000E+00    6.23900E-11
 3.50000E+00    2.99100E-10
 3.75000E+00    1.19500E-09
 4.00000E+00    4.84500E-09
 4.25000E+00    1.58500E-08
 4.50000E+00    5.40500E-08
 4.75000E+00    1.47900E-07
 5.00000E+00    4.24300E-07
 5.50000E+00    2.26400E-06
 6.00000E+00    8.77800E-06
 6.50000E+00    2.65400E-05
 7.00000E+00    6.59800E-05
 7.50000E+00    1.40700E-04
 8.00000E+00    2.44700E-04
 8.50000E+00    4.25700E-04
 9.00000E+00    7.07102E-04
 9.50000E+00    1.15201E-03
 1.00000E+01    1.88403E-03
 1.10000E+01    5.32142E-03
 1.20000E+01    1.60102E-02
 1.30000E+01    4.76713E-02
 1.40000E+01    1.29938E-01
 1.50000E+01    3.09865E-01
 1.60000E+01    6.39530E-01
 1.70000E+01    1.15560E+00
 1.80000E+01    1.86550E+00
 1.90000E+01    2.75090E+00
 2.00000E+01    3.77400E+00
