# n + Re  0 : (n,xp)
# jendl.ad   N.Iwamoto                         EVAL-Apr14
#
# # energies =    99
#   E(MeV)          xs(mb) 
 1.05000E-01    3.86103E-20
 1.10000E-01    4.15828E-20
 1.20000E-01    4.75272E-20
 1.30000E-01    5.52705E-20
 1.34967E-01    6.58461E-20
 1.40000E-01    7.65623E-20
 1.50000E-01    1.10602E-19
 1.60000E-01    1.49862E-19
 1.70000E-01    1.89122E-19
 1.80000E-01    2.28382E-19
 1.90000E-01    2.67642E-19
 2.00000E-01    3.06902E-19
 2.07357E-01    3.37485E-19
 2.25000E-01    4.10828E-19
 2.50000E-01    5.48321E-19
 2.75000E-01    6.85815E-19
 3.00000E-01    8.23312E-19
 3.04765E-01    8.58321E-19
 3.92104E-01    1.53032E-18
 4.00000E-01    1.59932E-18
 5.00000E-01    2.85199E-18
 5.14527E-01    3.11220E-18
 5.85130E-01    4.45732E-18
 5.92314E-01    4.59958E-18
 5.92315E-01    4.59960E-18
 6.00000E-01    4.75178E-18
 6.21698E-01    5.20765E-18
 6.28888E-01    5.36376E-18
 6.50722E-01    5.93176E-18
 6.89475E-01    1.01953E-17
 7.00000E-01    1.13537E-17
 7.22608E-01    2.68225E-17
 7.47009E-01    5.29510E-17
 7.71942E-01    9.10660E-17
 7.77070E-01    1.06755E-16
 8.00000E-01    1.82966E-16
 8.20970E-01    3.33100E-16
 8.21408E-01    3.36236E-16
 8.31251E-01    4.09236E-16
 8.49418E-01    6.80155E-16
 8.69305E-01    1.06789E-15
 8.84204E-01    1.40246E-15
 9.00000E-01    1.98580E-15
 9.38657E-01    4.72483E-15
 9.53115E-01    6.37352E-15
 9.65360E-01    8.33484E-15
 9.74530E-01    1.02027E-14
 9.84282E-01    1.28207E-14
 1.00000E+00    1.70402E-14
 1.00633E+00    1.97514E-14
 1.00855E+00    2.07022E-14
 1.10000E+00    1.19967E-13
 1.20000E+00    7.04510E-13
 1.30000E+00    3.43247E-12
 1.40000E+00    1.43893E-11
 1.50000E+00    5.29659E-11
 1.60000E+00    1.74075E-10
 1.70000E+00    5.17653E-10
 1.80000E+00    1.40972E-09
 1.90000E+00    3.54803E-09
 2.00000E+00    8.32413E-09
 2.25000E+00    5.52708E-08
 2.50000E+00    2.55955E-07
 2.75000E+00    9.60448E-07
 3.00000E+00    2.84275E-06
 3.50000E+00    1.64930E-05
 4.00000E+00    6.07857E-05
 4.50000E+00    1.61343E-04
 5.00000E+00    3.36814E-04
 5.50000E+00    5.76140E-04
 6.00000E+00    9.34684E-04
 6.50000E+00    1.54291E-03
 7.00000E+00    2.82750E-03
 7.50000E+00    5.86091E-03
 8.00000E+00    1.28835E-02
 8.50000E+00    2.81576E-02
 9.00000E+00    5.87731E-02
 9.50000E+00    1.15266E-01
 1.00000E+01    2.11495E-01
 1.05000E+01    3.63936E-01
 1.10000E+01    5.89726E-01
 1.15000E+01    9.05772E-01
 1.20000E+01    1.32740E+00
 1.25000E+01    1.86815E+00
 1.30000E+01    2.53983E+00
 1.35000E+01    3.35251E+00
 1.40000E+01    4.31455E+00
 1.45000E+01    5.43244E+00
 1.50000E+01    6.71050E+00
 1.55000E+01    8.15054E+00
 1.60000E+01    9.75398E+00
 1.65000E+01    1.15157E+01
 1.70000E+01    1.34367E+01
 1.75000E+01    1.55068E+01
 1.80000E+01    1.77204E+01
 1.85000E+01    2.00727E+01
 1.90000E+01    2.25482E+01
 1.95000E+01    2.51476E+01
 2.00000E+01    2.78551E+01
