# n + Re  0 : (n,xa)
# jendl.ad   N.Iwamoto                         EVAL-Apr14
#
# # energies =    99
#   E(MeV)          xs(mb) 
 1.05000E-01    6.86034E-06
 1.10000E-01    6.95277E-06
 1.20000E-01    6.96652E-06
 1.30000E-01    6.52885E-06
 1.34967E-01    6.43364E-06
 1.40000E-01    6.33228E-06
 1.50000E-01    6.23730E-06
 1.60000E-01    6.16577E-06
 1.70000E-01    6.12150E-06
 1.80000E-01    6.09797E-06
 1.90000E-01    6.08592E-06
 2.00000E-01    6.09472E-06
 2.07357E-01    6.16499E-06
 2.25000E-01    6.34103E-06
 2.50000E-01    6.45744E-06
 2.75000E-01    6.61260E-06
 3.00000E-01    6.43385E-06
 3.04765E-01    6.47121E-06
 3.92104E-01    7.01417E-06
 4.00000E-01    7.02176E-06
 5.00000E-01    8.13197E-06
 5.14527E-01    8.39815E-06
 5.85130E-01    9.55038E-06
 5.92314E-01    9.64720E-06
 5.92315E-01    9.64721E-06
 6.00000E-01    9.75078E-06
 6.21698E-01    1.03097E-05
 6.28888E-01    1.04869E-05
 6.50722E-01    1.10181E-05
 6.89475E-01    1.16344E-05
 7.00000E-01    1.17995E-05
 7.22608E-01    1.27264E-05
 7.47009E-01    1.30288E-05
 7.71942E-01    1.33965E-05
 7.77070E-01    1.34490E-05
 8.00000E-01    1.36368E-05
 8.20970E-01    1.43948E-05
 8.21408E-01    1.44104E-05
 8.31251E-01    1.47703E-05
 8.49418E-01    1.49356E-05
 8.69305E-01    1.51203E-05
 8.84204E-01    1.52624E-05
 9.00000E-01    1.54449E-05
 9.38657E-01    1.65935E-05
 9.53115E-01    1.67599E-05
 9.65360E-01    1.69519E-05
 9.74530E-01    1.70959E-05
 9.84282E-01    1.72379E-05
 1.00000E+00    1.74672E-05
 1.00633E+00    1.78494E-05
 1.00855E+00    1.79867E-05
 1.10000E+00    2.03060E-05
 1.20000E+00    2.36779E-05
 1.30000E+00    2.69162E-05
 1.40000E+00    3.03136E-05
 1.50000E+00    3.39569E-05
 1.60000E+00    3.79276E-05
 1.70000E+00    4.23456E-05
 1.80000E+00    4.72634E-05
 1.90000E+00    5.27373E-05
 2.00000E+00    5.88199E-05
 2.25000E+00    8.11690E-05
 2.50000E+00    1.00153E-04
 2.75000E+00    1.34085E-04
 3.00000E+00    1.83759E-04
 3.50000E+00    2.88590E-04
 4.00000E+00    4.37475E-04
 4.50000E+00    6.37768E-04
 5.00000E+00    9.12819E-04
 5.50000E+00    1.28933E-03
 6.00000E+00    1.83669E-03
 6.50000E+00    2.68041E-03
 7.00000E+00    4.03542E-03
 7.50000E+00    6.26788E-03
 8.00000E+00    9.87958E-03
 8.50000E+00    1.52911E-02
 9.00000E+00    2.34707E-02
 9.50000E+00    3.60282E-02
 1.00000E+01    5.49571E-02
 1.05000E+01    8.26332E-02
 1.10000E+01    1.21887E-01
 1.15000E+01    1.75505E-01
 1.20000E+01    2.46074E-01
 1.25000E+01    3.35620E-01
 1.30000E+01    4.45364E-01
 1.35000E+01    5.75618E-01
 1.40000E+01    7.25846E-01
 1.45000E+01    8.94695E-01
 1.50000E+01    1.08054E+00
 1.55000E+01    1.28116E+00
 1.60000E+01    1.49447E+00
 1.65000E+01    1.71767E+00
 1.70000E+01    1.94911E+00
 1.75000E+01    2.18643E+00
 1.80000E+01    2.42814E+00
 1.85000E+01    2.67209E+00
 1.90000E+01    2.91730E+00
 1.95000E+01    3.16258E+00
 2.00000E+01    3.40706E+00
