# n + Re  0 : (n,xn)
# jendl.ad   N.Iwamoto                         EVAL-Apr14
#
# # energies =    99
#   E(MeV)          xs(mb) 
 1.05000E-01    0.00000E+00
 1.10000E-01    5.55191E-03
 1.20000E-01    6.56346E-03
 1.30000E-01    6.49901E+01
 1.34967E-01    8.17375E+01
 1.40000E-01    2.49735E+02
 1.50000E-01    3.26541E+02
 1.60000E-01    3.79074E+02
 1.70000E-01    4.15691E+02
 1.80000E-01    4.46578E+02
 1.90000E-01    4.73996E+02
 2.00000E-01    4.99129E+02
 2.07357E-01    5.16290E+02
 2.25000E-01    5.95705E+02
 2.50000E-01    6.61606E+02
 2.75000E-01    7.21284E+02
 3.00000E-01    7.97764E+02
 3.04765E-01    8.09598E+02
 3.92104E-01    1.08560E+03
 4.00000E-01    1.10905E+03
 5.00000E-01    1.34058E+03
 5.14527E-01    1.36923E+03
 5.85130E-01    1.53065E+03
 5.92314E-01    1.58327E+03
 5.92315E-01    1.58328E+03
 6.00000E-01    1.63487E+03
 6.21698E-01    1.70422E+03
 6.28888E-01    1.73957E+03
 6.50722E-01    1.80600E+03
 6.89475E-01    1.93488E+03
 7.00000E-01    1.97680E+03
 7.22608E-01    2.02958E+03
 7.47009E-01    2.10367E+03
 7.71942E-01    2.15884E+03
 7.77070E-01    2.17877E+03
 8.00000E-01    2.24828E+03
 8.20970E-01    2.28778E+03
 8.21408E-01    2.29064E+03
 8.31251E-01    2.32224E+03
 8.49418E-01    2.37164E+03
 8.69305E-01    2.41933E+03
 8.84204E-01    2.45409E+03
 9.00000E-01    2.49018E+03
 9.38657E-01    2.55390E+03
 9.53115E-01    2.58019E+03
 9.65360E-01    2.59774E+03
 9.74530E-01    2.61253E+03
 9.84282E-01    2.62709E+03
 1.00000E+00    2.65040E+03
 1.00633E+00    2.65782E+03
 1.00855E+00    2.66146E+03
 1.10000E+00    2.74905E+03
 1.20000E+00    2.82009E+03
 1.30000E+00    2.88896E+03
 1.40000E+00    2.94387E+03
 1.50000E+00    2.98672E+03
 1.60000E+00    3.01970E+03
 1.70000E+00    3.04423E+03
 1.80000E+00    3.06164E+03
 1.90000E+00    3.07285E+03
 2.00000E+00    3.07870E+03
 2.25000E+00    3.07434E+03
 2.50000E+00    3.05131E+03
 2.75000E+00    3.01850E+03
 3.00000E+00    2.98359E+03
 3.50000E+00    2.92005E+03
 4.00000E+00    2.87804E+03
 4.50000E+00    2.85350E+03
 5.00000E+00    2.83644E+03
 5.50000E+00    2.81576E+03
 6.00000E+00    2.79189E+03
 6.50000E+00    2.76484E+03
 7.00000E+00    2.74007E+03
 7.50000E+00    2.71988E+03
 8.00000E+00    2.89931E+03
 8.50000E+00    3.38506E+03
 9.00000E+00    3.89463E+03
 9.50000E+00    4.27757E+03
 1.00000E+01    4.53000E+03
 1.05000E+01    4.68546E+03
 1.10000E+01    4.77660E+03
 1.15000E+01    4.82763E+03
 1.20000E+01    4.85390E+03
 1.25000E+01    4.86542E+03
 1.30000E+01    4.86840E+03
 1.35000E+01    4.86680E+03
 1.40000E+01    4.86323E+03
 1.45000E+01    4.87081E+03
 1.50000E+01    4.91766E+03
 1.55000E+01    5.02774E+03
 1.60000E+01    5.19776E+03
 1.65000E+01    5.40417E+03
 1.70000E+01    5.62262E+03
 1.75000E+01    5.83161E+03
 1.80000E+01    6.00294E+03
 1.85000E+01    6.15053E+03
 1.90000E+01    6.27461E+03
 1.95000E+01    6.36422E+03
 2.00000E+01    6.42562E+03
