# n + Os190 : (n,n'03)  
# jendl4.0   N.Iwamoto                         EVAL-Jan10
# uncertainties: n
# # energies =    91
#   E(MeV)       xs(mb) 
 5.60942E-01    0.00000E+00
 6.00000E-01    3.10569E+02
 7.00000E-01    4.72151E+02
 7.60036E-01    5.34571E+02
 8.00000E-01    5.38740E+02
 9.00000E-01    5.89670E+02
 9.16622E-01    5.96908E+02
 9.60445E-01    6.01300E+02
 1.00000E+00    6.00922E+02
 1.05596E+00    6.01529E+02
 1.10000E+00    6.00067E+02
 1.12064E+00    5.99475E+02
 1.12142E+00    5.92927E+02
 1.16937E+00    5.40486E+02
 1.20000E+00    5.29639E+02
 1.21025E+00    5.25511E+02
 1.30000E+00    4.92858E+02
 1.33395E+00    4.82306E+02
 1.38974E+00    4.51212E+02
 1.39436E+00    4.43696E+02
 1.40000E+00    4.36035E+02
 1.44344E+00    4.13827E+02
 1.45380E+00    4.03382E+02
 1.48203E+00    3.89650E+02
 1.48987E+00    3.86429E+02
 1.50000E+00    3.77368E+02
 1.52214E+00    3.67452E+02
 1.55350E+00    3.56544E+02
 1.55542E+00    3.54982E+02
 1.57737E+00    3.41331E+02
 1.57864E+00    3.39776E+02
 1.59229E+00    3.28131E+02
 1.60000E+00    3.23014E+02
 1.62455E+00    3.11886E+02
 1.67532E+00    2.88554E+02
 1.68458E+00    2.85284E+02
 1.68842E+00    2.82361E+02
 1.68952E+00    2.81269E+02
 1.69062E+00    2.79783E+02
 1.69803E+00    2.74888E+02
 1.70000E+00    2.72801E+02
 1.71446E+00    2.64922E+02
 1.71737E+00    2.63619E+02
 1.73396E+00    2.54697E+02
 1.74210E+00    2.49524E+02
 1.78644E+00    2.32004E+02
 1.80000E+00    2.27170E+02
 1.81227E+00    2.23570E+02
 1.82313E+00    2.20024E+02
 1.83328E+00    2.16710E+02
 1.84607E+00    2.12759E+02
 1.90000E+00    1.99679E+02
 2.00000E+00    1.76760E+02
 2.25000E+00    1.23078E+02
 2.50000E+00    8.94532E+01
 2.75000E+00    6.33886E+01
 3.00000E+00    4.11848E+01
 3.50000E+00    1.80013E+01
 4.00000E+00    7.59093E+00
 4.50000E+00    3.13979E+00
 5.00000E+00    1.28494E+00
 5.50000E+00    5.21593E-01
 6.00000E+00    2.10211E-01
 6.50000E+00    8.39478E-02
 7.00000E+00    3.34023E-02
 7.50000E+00    1.34471E-02
 8.00000E+00    5.53745E-03
 8.50000E+00    2.34242E-03
 9.00000E+00    1.01786E-03
 9.50000E+00    4.53453E-04
 1.00000E+01    2.06531E-04
 1.05000E+01    9.59386E-05
 1.10000E+01    4.53622E-05
 1.15000E+01    2.18077E-05
 1.20000E+01    1.06474E-05
 1.25000E+01    5.27534E-06
 1.30000E+01    2.65055E-06
 1.35000E+01    1.34968E-06
 1.40000E+01    6.96100E-07
 1.45000E+01    3.63420E-07
 1.50000E+01    1.91960E-07
 1.55000E+01    1.02520E-07
 1.60000E+01    5.53290E-08
 1.65000E+01    3.01580E-08
 1.70000E+01    1.65930E-08
 1.75000E+01    9.21030E-09
 1.80000E+01    5.15550E-09
 1.85000E+01    2.90900E-09
 1.90000E+01    1.65400E-09
 1.95000E+01    9.47430E-10
 2.00000E+01    5.46600E-10
